unique_id,dataset,participant_id,session,task,acquisition,run,onset,duration,trial_type,condition,response_time,accuracy,stim1,stim2
ds001894_sub-0001,ds001894,sub-001,ses-T1,task-VVWord,,run-01,0,4,2,O+P-,2.112,0,post.bmp,cost.bmp
ds001894_sub-0001,ds001894,sub-001,ses-T1,task-VVWord,,run-01,4.01700000000005,4,5,control,2.01,1,blackcross.bmp,blackcross.bmp
ds001894_sub-0001,ds001894,sub-001,ses-T1,task-VVWord,,run-01,8.03300000000013,4.4,6,perceptual,1.636,1,o.bmp,p.bmp
ds001894_sub-0001,ds001894,sub-001,ses-T1,task-VVWord,,run-01,12.451,4,3,O-P+,1.707,1,rum.bmp,numb.bmp
ds001894_sub-0001,ds001894,sub-001,ses-T1,task-VVWord,,run-01,16.4680000000001,4.8,5,control,2.078,1,blackcross.bmp,blackcross.bmp
ds001894_sub-0001,ds001894,sub-001,ses-T1,task-VVWord,,run-01,21.2740000000001,4,6,perceptual,1.739,1,c.bmp,u.bmp
ds001894_sub-0001,ds001894,sub-001,ses-T1,task-VVWord,,run-01,25.2900000000002,4,1,O+P+,2.327,1,fought.bmp,sought.bmp
ds001894_sub-0001,ds001894,sub-001,ses-T1,task-VVWord,,run-01,29.307,4,1,O+P+,1.58,1,scheme.bmp,theme.bmp
ds001894_sub-0001,ds001894,sub-001,ses-T1,task-VVWord,,run-01,33.3230000000001,4,6,perceptual,1.516,1,m.bmp,n.bmp
ds001894_sub-0001,ds001894,sub-001,ses-T1,task-VVWord,,run-01,37.3400000000001,4.4,1,O+P+,1.947,0,stool.bmp,fool.bmp
ds001894_sub-0001,ds001894,sub-001,ses-T1,task-VVWord,,run-01,41.758,4.4,5,control,1.692,1,blackcross.bmp,blackcross.bmp
ds001894_sub-0001,ds001894,sub-001,ses-T1,task-VVWord,,run-01,46.1760000000002,4.4,1,O+P+,2.067,1,soak.bmp,oak.bmp
ds001894_sub-0001,ds001894,sub-001,ses-T1,task-VVWord,,run-01,50.594,4.4,2,O+P-,2.031,1,threat.bmp,wheat.bmp
ds001894_sub-0001,ds001894,sub-001,ses-T1,task-VVWord,,run-01,55.0120000000002,4,1,O+P+,NA,0,thread.bmp,spread.bmp
ds001894_sub-0001,ds001894,sub-001,ses-T1,task-VVWord,,run-01,59.028,4.4,3,O-P+,1.995,0,pile.bmp,trial.bmp
ds001894_sub-0001,ds001894,sub-001,ses-T1,task-VVWord,,run-01,63.4460000000001,4.8,4,O-P-,1.684,1,swap.bmp,watch.bmp
ds001894_sub-0001,ds001894,sub-001,ses-T1,task-VVWord,,run-01,68.2530000000002,4.8,5,control,1.696,1,blackcross.bmp,blackcross.bmp
ds001894_sub-0001,ds001894,sub-001,ses-T1,task-VVWord,,run-01,73.0590000000002,4.4,5,control,2.111,1,blackcross.bmp,blackcross.bmp
ds001894_sub-0001,ds001894,sub-001,ses-T1,task-VVWord,,run-01,77.4770000000001,4.4,4,O-P-,1.862,1,tough.bmp,dull.bmp
ds001894_sub-0001,ds001894,sub-001,ses-T1,task-VVWord,,run-01,81.8950000000002,4.8,6,perceptual,1.713,1,w.bmp,e.bmp
ds001894_sub-0001,ds001894,sub-001,ses-T1,task-VVWord,,run-01,86.702,4.8,1,O+P+,1.513,1,sweep.bmp,creep.bmp
ds001894_sub-0001,ds001894,sub-001,ses-T1,task-VVWord,,run-01,91.508,4.8,6,perceptual,1.608,1,k.bmp,t.bmp
ds001894_sub-0001,ds001894,sub-001,ses-T1,task-VVWord,,run-01,96.3140000000001,4.4,5,control,1.838,1,blackcross.bmp,blackcross.bmp
ds001894_sub-0001,ds001894,sub-001,ses-T1,task-VVWord,,run-01,100.732,4.4,3,O-P+,1.756,1,stroke.bmp,soak.bmp
ds001894_sub-0001,ds001894,sub-001,ses-T1,task-VVWord,,run-01,105.15,4.4,4,O-P-,2.553,1,trial.bmp,fall.bmp
ds001894_sub-0001,ds001894,sub-001,ses-T1,task-VVWord,,run-01,109.568,4.8,6,perceptual,1.811,1,k.bmp,l.bmp
ds001894_sub-0001,ds001894,sub-001,ses-T1,task-VVWord,,run-01,114.375,4,5,control,1.872,1,blackcross.bmp,blackcross.bmp
ds001894_sub-0001,ds001894,sub-001,ses-T1,task-VVWord,,run-01,118.391,4.4,5,control,1.851,1,blackcross.bmp,blackcross.bmp
ds001894_sub-0001,ds001894,sub-001,ses-T1,task-VVWord,,run-01,122.809,4.4,5,control,2.121,1,blackcross.bmp,blackcross.bmp
ds001894_sub-0001,ds001894,sub-001,ses-T1,task-VVWord,,run-01,127.227,4.4,5,control,2.062,1,blackcross.bmp,blackcross.bmp
ds001894_sub-0001,ds001894,sub-001,ses-T1,task-VVWord,,run-01,131.645,4,1,O+P+,1.632,1,beef.bmp,reef.bmp
ds001894_sub-0001,ds001894,sub-001,ses-T1,task-VVWord,,run-01,135.662,4,5,control,1.831,1,blackcross.bmp,blackcross.bmp
ds001894_sub-0001,ds001894,sub-001,ses-T1,task-VVWord,,run-01,139.678,4.8,2,O+P-,1.591,1,wart.bmp,smart.bmp
ds001894_sub-0001,ds001894,sub-001,ses-T1,task-VVWord,,run-01,144.485,4.8,2,O+P-,1.492,0,dose.bmp,pose.bmp
ds001894_sub-0001,ds001894,sub-001,ses-T1,task-VVWord,,run-01,149.291,4.4,5,control,1.615,1,blackcross.bmp,blackcross.bmp
ds001894_sub-0001,ds001894,sub-001,ses-T1,task-VVWord,,run-01,153.709,4,2,O+P-,1.595,1,touch.bmp,couch.bmp
ds001894_sub-0001,ds001894,sub-001,ses-T1,task-VVWord,,run-01,157.725,4,6,perceptual,1.48,1,v.bmp,m.bmp
ds001894_sub-0001,ds001894,sub-001,ses-T1,task-VVWord,,run-01,161.742,4.8,5,control,1.492,1,blackcross.bmp,blackcross.bmp
ds001894_sub-0001,ds001894,sub-001,ses-T1,task-VVWord,,run-01,166.548,4.8,5,control,1.911,1,blackcross.bmp,blackcross.bmp
ds001894_sub-0001,ds001894,sub-001,ses-T1,task-VVWord,,run-01,171.355,4.4,5,control,2.31,0,blackcross.bmp,blackcross.bmp
ds001894_sub-0001,ds001894,sub-001,ses-T1,task-VVWord,,run-01,175.773,4,5,control,2.12,1,blackcross.bmp,blackcross.bmp
ds001894_sub-0001,ds001894,sub-001,ses-T1,task-VVWord,,run-01,179.789,4.8,5,control,1.943,1,blackcross.bmp,blackcross.bmp
ds001894_sub-0001,ds001894,sub-001,ses-T1,task-VVWord,,run-01,184.595,4.4,4,O-P-,1.719,1,port.bmp,warm.bmp
ds001894_sub-0001,ds001894,sub-001,ses-T1,task-VVWord,,run-01,189.013,4.8,3,O-P+,1.692,1,june.bmp,noon.bmp
ds001894_sub-0001,ds001894,sub-001,ses-T1,task-VVWord,,run-01,193.82,4.4,4,O-P-,1.6,1,wreath.bmp,leap.bmp
ds001894_sub-0001,ds001894,sub-001,ses-T1,task-VVWord,,run-01,198.238,4,5,control,1.98,1,blackcross.bmp,blackcross.bmp
ds001894_sub-0001,ds001894,sub-001,ses-T1,task-VVWord,,run-01,202.254,4.4,6,perceptual,1.548,1,c.bmp,d.bmp
ds001894_sub-0001,ds001894,sub-001,ses-T1,task-VVWord,,run-01,206.672,4.4,2,O+P-,1.663,1,glove.bmp,stove.bmp
ds001894_sub-0001,ds001894,sub-001,ses-T1,task-VVWord,,run-01,211.09,4.8,1,O+P+,1.656,1,numb.bmp,crumb.bmp
ds001894_sub-0001,ds001894,sub-001,ses-T1,task-VVWord,,run-01,215.897,4.8,2,O+P-,1.845,1,stood.bmp,flood.bmp
ds001894_sub-0001,ds001894,sub-001,ses-T1,task-VVWord,,run-01,220.703,4.4,6,perceptual,1.546,1,i.bmp,j.bmp
ds001894_sub-0001,ds001894,sub-001,ses-T1,task-VVWord,,run-01,225.121,4.8,4,O-P-,1.659,1,smart.bmp,drought.bmp
ds001894_sub-0001,ds001894,sub-001,ses-T1,task-VVWord,,run-01,229.928,4.4,3,O-P+,1.496,1,stir.bmp,blur.bmp
ds001894_sub-0001,ds001894,sub-001,ses-T1,task-VVWord,,run-01,234.346,4.4,5,control,2.003,1,blackcross.bmp,blackcross.bmp
ds001894_sub-0001,ds001894,sub-001,ses-T1,task-VVWord,,run-01,238.764,4.8,5,control,2.193,1,blackcross.bmp,blackcross.bmp
ds001894_sub-0001,ds001894,sub-001,ses-T1,task-VVWord,,run-01,243.57,4.8,2,O+P-,1.819,0,pool.bmp,wool.bmp
ds001894_sub-0001,ds001894,sub-001,ses-T1,task-VVWord,,run-01,248.376,4,5,control,1.695,0,blackcross.bmp,blackcross.bmp
ds001894_sub-0001,ds001894,sub-001,ses-T1,task-VVWord,,run-01,252.393,4.4,5,control,1.936,1,blackcross.bmp,blackcross.bmp
ds001894_sub-0001,ds001894,sub-001,ses-T1,task-VVWord,,run-01,256.811,4.4,2,O+P-,1.868,1,fought.bmp,drought.bmp
ds001894_sub-0001,ds001894,sub-001,ses-T1,task-VVWord,,run-01,261.229,4,3,O-P+,2.798,1,flight.bmp,spite.bmp
ds001894_sub-0001,ds001894,sub-001,ses-T1,task-VVWord,,run-01,265.245,4.4,3,O-P+,1.892,1,scheme.bmp,cream.bmp
ds001894_sub-0001,ds001894,sub-001,ses-T1,task-VVWord,,run-01,269.663,4,6,perceptual,1.435,1,z.bmp,g.bmp
ds001894_sub-0001,ds001894,sub-001,ses-T1,task-VVWord,,run-01,273.68,4.8,4,O-P-,1.628,1,ghost.bmp,pose.bmp
ds001894_sub-0001,ds001894,sub-001,ses-T1,task-VVWord,,run-01,278.486,4.4,5,control,1.795,1,blackcross.bmp,blackcross.bmp
ds001894_sub-0001,ds001894,sub-001,ses-T1,task-VVWord,,run-01,282.904,4,4,O-P-,1.559,1,grace.bmp,fence.bmp
ds001894_sub-0001,ds001894,sub-001,ses-T1,task-VVWord,,run-01,286.921,4,4,O-P-,2.146,0,dried.bmp,stood.bmp
ds001894_sub-0001,ds001894,sub-001,ses-T1,task-VVWord,,run-01,290.937,4,4,O-P-,1.666,1,ford.bmp,rod.bmp
ds001894_sub-0001,ds001894,sub-001,ses-T1,task-VVWord,,run-01,294.954,4.4,1,O+P+,1.505,1,strap.bmp,gap.bmp
ds001894_sub-0001,ds001894,sub-001,ses-T1,task-VVWord,,run-01,299.372,4.8,6,perceptual,1.647,1,e.bmp,f.bmp
ds001894_sub-0001,ds001894,sub-001,ses-T1,task-VVWord,,run-01,304.178,4,5,control,1.919,1,blackcross.bmp,blackcross.bmp
ds001894_sub-0001,ds001894,sub-001,ses-T1,task-VVWord,,run-01,308.194,4,4,O-P-,1.75,1,gross.bmp,post.bmp
ds001894_sub-0001,ds001894,sub-001,ses-T1,task-VVWord,,run-01,312.211,4,4,O-P-,1.354,0,fault.bmp,note.bmp
ds001894_sub-0001,ds001894,sub-001,ses-T1,task-VVWord,,run-01,316.227,4.8,1,O+P+,2.168,1,bull.bmp,full.bmp
ds001894_sub-0001,ds001894,sub-001,ses-T1,task-VVWord,,run-01,321.034,4.8,3,O-P+,1.469,1,chase.bmp,grace.bmp
ds001894_sub-0001,ds001894,sub-001,ses-T1,task-VVWord,,run-01,325.84,4,3,O-P+,1.572,0,float.bmp,note.bmp
ds001894_sub-0001,ds001894,sub-001,ses-T1,task-VVWord,,run-01,329.856,4.8,3,O-P+,1.838,1,bride.bmp,dried.bmp
ds001894_sub-0001,ds001894,sub-001,ses-T1,task-VVWord,,run-01,334.663,4.8,4,O-P-,1.439,1,thief.bmp,plead.bmp
ds001894_sub-0001,ds001894,sub-001,ses-T1,task-VVWord,,run-01,339.469,4.4,1,O+P+,1.373,1,bluff.bmp,puff.bmp
ds001894_sub-0001,ds001894,sub-001,ses-T1,task-VVWord,,run-01,343.887,4.8,6,perceptual,1.417,1,v.bmp,w.bmp
ds001894_sub-0001,ds001894,sub-001,ses-T1,task-VVWord,,run-01,348.694,4.8,1,O+P+,1.766,1,shove.bmp,glove.bmp
ds001894_sub-0001,ds001894,sub-001,ses-T1,task-VVWord,,run-01,353.5,4.4,6,perceptual,1.423,1,y.bmp,o.bmp
ds001894_sub-0001,ds001894,sub-001,ses-T1,task-VVWord,,run-01,357.918,4.8,2,O+P-,1.751,1,stamp.bmp,swamp.bmp
ds001894_sub-0001,ds001894,sub-001,ses-T1,task-VVWord,,run-01,362.724,4.4,4,O-P-,1.478,0,stamp.bmp,tomb.bmp
ds001894_sub-0001,ds001894,sub-001,ses-T1,task-VVWord,,run-01,367.142,4,5,control,1.746,1,blackcross.bmp,blackcross.bmp
ds001894_sub-0001,ds001894,sub-001,ses-T1,task-VVWord,,run-02,0,4.8,6,perceptual,1.929,1,a.bmp,s.bmp
ds001894_sub-0001,ds001894,sub-001,ses-T1,task-VVWord,,run-02,4.806,4.8,3,O-P+,1.693,1,fall.bmp,crawl.bmp
ds001894_sub-0001,ds001894,sub-001,ses-T1,task-VVWord,,run-02,9.613,4.4,3,O-P+,1.788,1,leap.bmp,sweep.bmp
ds001894_sub-0001,ds001894,sub-001,ses-T1,task-VVWord,,run-02,14.031,4,3,O-P+,1.53,1,tense.bmp,fence.bmp
ds001894_sub-0001,ds001894,sub-001,ses-T1,task-VVWord,,run-02,18.047,4,3,O-P+,1.932,1,soup.bmp,loop.bmp
ds001894_sub-0001,ds001894,sub-001,ses-T1,task-VVWord,,run-02,22.064,4.4,6,perceptual,1.469,1,j.bmp,b.bmp
ds001894_sub-0001,ds001894,sub-001,ses-T1,task-VVWord,,run-02,26.482,4,6,perceptual,1.591,1,h.bmp,p.bmp
ds001894_sub-0001,ds001894,sub-001,ses-T1,task-VVWord,,run-02,30.498,4,4,O-P-,2.058,1,pool.bmp,tooth.bmp
ds001894_sub-0001,ds001894,sub-001,ses-T1,task-VVWord,,run-02,34.515,4.8,4,O-P-,2.17,0,both.bmp,stroke.bmp
ds001894_sub-0001,ds001894,sub-001,ses-T1,task-VVWord,,run-02,39.321,4,1,O+P+,1.727,1,quart.bmp,wart.bmp
ds001894_sub-0001,ds001894,sub-001,ses-T1,task-VVWord,,run-02,43.337,4.8,5,control,1.829,1,blackcross.bmp,blackcross.bmp
ds001894_sub-0001,ds001894,sub-001,ses-T1,task-VVWord,,run-02,48.144,4.4,6,perceptual,1.391,1,a.bmp,b.bmp
ds001894_sub-0001,ds001894,sub-001,ses-T1,task-VVWord,,run-02,52.562,4.4,2,O+P-,2.485,1,pint.bmp,hint.bmp
ds001894_sub-0001,ds001894,sub-001,ses-T1,task-VVWord,,run-02,56.98,4.4,3,O-P+,1.65,1,wheel.bmp,deal.bmp
ds001894_sub-0001,ds001894,sub-001,ses-T1,task-VVWord,,run-02,61.398,4,2,O+P-,1.769,1,smooth.bmp,tooth.bmp
ds001894_sub-0001,ds001894,sub-001,ses-T1,task-VVWord,,run-02,65.414,4,3,O-P+,2.786,0,stool.bmp,rule.bmp
ds001894_sub-0001,ds001894,sub-001,ses-T1,task-VVWord,,run-02,69.431,4,5,control,1.811,1,blackcross.bmp,blackcross.bmp
ds001894_sub-0001,ds001894,sub-001,ses-T1,task-VVWord,,run-02,73.447,4,5,control,1.991,1,blackcross.bmp,blackcross.bmp
ds001894_sub-0001,ds001894,sub-001,ses-T1,task-VVWord,,run-02,77.464,4.4,5,control,1.951,1,blackcross.bmp,blackcross.bmp
ds001894_sub-0001,ds001894,sub-001,ses-T1,task-VVWord,,run-02,81.882,4.4,4,O-P-,2.052,1,flight.bmp,threat.bmp
ds001894_sub-0001,ds001894,sub-001,ses-T1,task-VVWord,,run-02,86.3,4.4,3,O-P+,2.353,1,bluff.bmp,tough.bmp
ds001894_sub-0001,ds001894,sub-001,ses-T1,task-VVWord,,run-02,90.718,4.8,6,perceptual,1.713,1,i.bmp,r.bmp
ds001894_sub-0001,ds001894,sub-001,ses-T1,task-VVWord,,run-02,95.524,4.8,3,O-P+,1.639,1,halt.bmp,fault.bmp
ds001894_sub-0001,ds001894,sub-001,ses-T1,task-VVWord,,run-02,100.331,4.4,2,O+P-,1.982,1,dull.bmp,bull.bmp
ds001894_sub-0001,ds001894,sub-001,ses-T1,task-VVWord,,run-02,104.749,4,1,O+P+,2.793,0,brow.bmp,cow.bmp
ds001894_sub-0001,ds001894,sub-001,ses-T1,task-VVWord,,run-02,108.765,4.8,1,O+P+,1.779,1,goat.bmp,float.bmp
ds001894_sub-0001,ds001894,sub-001,ses-T1,task-VVWord,,run-02,113.571,4,1,O+P+,1.579,1,glide.bmp,bride.bmp
ds001894_sub-0001,ds001894,sub-001,ses-T1,task-VVWord,,run-02,117.588,4,5,control,2.036,1,blackcross.bmp,blackcross.bmp
ds001894_sub-0001,ds001894,sub-001,ses-T1,task-VVWord,,run-02,121.604,4,5,control,1.934,1,blackcross.bmp,blackcross.bmp
ds001894_sub-0001,ds001894,sub-001,ses-T1,task-VVWord,,run-02,125.621,4,5,control,1.869,1,blackcross.bmp,blackcross.bmp
ds001894_sub-0001,ds001894,sub-001,ses-T1,task-VVWord,,run-02,129.637,4.8,2,O+P-,1.56,1,plead.bmp,spread.bmp
ds001894_sub-0001,ds001894,sub-001,ses-T1,task-VVWord,,run-02,134.444,4.4,6,perceptual,1.422,1,t.bmp,u.bmp
ds001894_sub-0001,ds001894,sub-001,ses-T1,task-VVWord,,run-02,138.862,4.8,3,O-P+,1.485,1,roast.bmp,ghost.bmp
ds001894_sub-0001,ds001894,sub-001,ses-T1,task-VVWord,,run-02,143.668,4,6,perceptual,1.535,1,y.bmp,z.bmp
ds001894_sub-0001,ds001894,sub-001,ses-T1,task-VVWord,,run-02,147.684,4.8,5,control,1.815,1,blackcross.bmp,blackcross.bmp
ds001894_sub-0001,ds001894,sub-001,ses-T1,task-VVWord,,run-02,152.491,4.8,3,O-P+,1.618,1,odd.bmp,rod.bmp
ds001894_sub-0001,ds001894,sub-001,ses-T1,task-VVWord,,run-02,157.297,4.4,1,O+P+,1.94,1,spoon.bmp,noon.bmp
ds001894_sub-0001,ds001894,sub-001,ses-T1,task-VVWord,,run-02,161.715,4.8,5,control,1.739,1,blackcross.bmp,blackcross.bmp
ds001894_sub-0001,ds001894,sub-001,ses-T1,task-VVWord,,run-02,166.521,4.8,5,control,2.382,1,blackcross.bmp,blackcross.bmp
ds001894_sub-0001,ds001894,sub-001,ses-T1,task-VVWord,,run-02,171.328,4.8,5,control,2.065,1,blackcross.bmp,blackcross.bmp
ds001894_sub-0001,ds001894,sub-001,ses-T1,task-VVWord,,run-02,176.134,4,5,control,1.639,1,blackcross.bmp,blackcross.bmp
ds001894_sub-0001,ds001894,sub-001,ses-T1,task-VVWord,,run-02,180.15,4.8,5,control,1.771,1,blackcross.bmp,blackcross.bmp
ds001894_sub-0001,ds001894,sub-001,ses-T1,task-VVWord,,run-02,184.957,4,2,O+P-,2.087,1,breath.bmp,wreath.bmp
ds001894_sub-0001,ds001894,sub-001,ses-T1,task-VVWord,,run-02,188.973,4.4,1,O+P+,2.439,1,neat.bmp,wheat.bmp
ds001894_sub-0001,ds001894,sub-001,ses-T1,task-VVWord,,run-02,193.391,4,2,O+P-,2.504,1,mouth.bmp,youth.bmp
ds001894_sub-0001,ds001894,sub-001,ses-T1,task-VVWord,,run-02,197.408,4.8,1,O+P+,1.839,1,toss.bmp,moss.bmp
ds001894_sub-0001,ds001894,sub-001,ses-T1,task-VVWord,,run-02,202.214,4.8,5,control,2.069,1,blackcross.bmp,blackcross.bmp
ds001894_sub-0001,ds001894,sub-001,ses-T1,task-VVWord,,run-02,207.02,4.4,6,perceptual,1.4,1,g.bmp,h.bmp
ds001894_sub-0001,ds001894,sub-001,ses-T1,task-VVWord,,run-02,211.438,4.8,4,O-P-,1.445,1,rule.bmp,blur.bmp
ds001894_sub-0001,ds001894,sub-001,ses-T1,task-VVWord,,run-02,216.245,4,2,O+P-,1.77,1,tomb.bmp,comb.bmp
ds001894_sub-0001,ds001894,sub-001,ses-T1,task-VVWord,,run-02,220.261,4.8,6,perceptual,1.593,1,r.bmp,s.bmp
ds001894_sub-0001,ds001894,sub-001,ses-T1,task-VVWord,,run-02,225.068,4,4,O-P-,1.925,1,june.bmp,loop.bmp
ds001894_sub-0001,ds001894,sub-001,ses-T1,task-VVWord,,run-02,229.084,4.4,3,O-P+,1.997,1,warm.bmp,form.bmp
ds001894_sub-0001,ds001894,sub-001,ses-T1,task-VVWord,,run-02,233.502,4.4,4,O-P-,2.707,1,rum.bmp,touch.bmp
ds001894_sub-0001,ds001894,sub-001,ses-T1,task-VVWord,,run-02,237.92,4,2,O+P-,1.823,1,gross.bmp,moss.bmp
ds001894_sub-0001,ds001894,sub-001,ses-T1,task-VVWord,,run-02,241.937,4,4,O-P-,1.627,1,glow.bmp,stove.bmp
ds001894_sub-0001,ds001894,sub-001,ses-T1,task-VVWord,,run-02,245.953,4.8,5,control,1.881,1,blackcross.bmp,blackcross.bmp
ds001894_sub-0001,ds001894,sub-001,ses-T1,task-VVWord,,run-02,250.759,4.8,4,O-P-,1.414,0,wheel.bmp,sneak.bmp
ds001894_sub-0001,ds001894,sub-001,ses-T1,task-VVWord,,run-02,255.566,4,5,control,NA,0,blackcross.bmp,blackcross.bmp
ds001894_sub-0001,ds001894,sub-001,ses-T1,task-VVWord,,run-02,259.582,4.4,2,O+P-,1.911,1,cow.bmp,glow.bmp
ds001894_sub-0001,ds001894,sub-001,ses-T1,task-VVWord,,run-02,264,4.4,1,O+P+,2.043,1,pile.bmp,mile.bmp
ds001894_sub-0001,ds001894,sub-001,ses-T1,task-VVWord,,run-02,268.418,4.8,3,O-P+,1.602,1,cheek.bmp,sneak.bmp
ds001894_sub-0001,ds001894,sub-001,ses-T1,task-VVWord,,run-02,273.225,4.4,4,O-P-,1.592,1,youth.bmp,hint.bmp
ds001894_sub-0001,ds001894,sub-001,ses-T1,task-VVWord,,run-02,277.643,4.4,5,control,1.714,1,blackcross.bmp,blackcross.bmp
ds001894_sub-0001,ds001894,sub-001,ses-T1,task-VVWord,,run-02,282.061,4,3,O-P+,1.612,1,thief.bmp,beef.bmp
ds001894_sub-0001,ds001894,sub-001,ses-T1,task-VVWord,,run-02,286.077,4.4,5,control,1.86,1,blackcross.bmp,blackcross.bmp
ds001894_sub-0001,ds001894,sub-001,ses-T1,task-VVWord,,run-02,290.495,4.8,2,O+P-,1.456,1,swarm.bmp,harm.bmp
ds001894_sub-0001,ds001894,sub-001,ses-T1,task-VVWord,,run-02,295.302,4,6,perceptual,1.905,1,l.bmp,d.bmp
ds001894_sub-0001,ds001894,sub-001,ses-T1,task-VVWord,,run-02,299.318,4.4,2,O+P-,1.751,1,both.bmp,cloth.bmp
ds001894_sub-0001,ds001894,sub-001,ses-T1,task-VVWord,,run-02,303.736,4.4,5,control,1.877,1,blackcross.bmp,blackcross.bmp
ds001894_sub-0001,ds001894,sub-001,ses-T1,task-VVWord,,run-02,308.154,4.8,4,O-P-,1.465,1,cream.bmp,swarm.bmp
ds001894_sub-0001,ds001894,sub-001,ses-T1,task-VVWord,,run-02,312.961,4.4,2,O+P-,2.072,1,ford.bmp,word.bmp
ds001894_sub-0001,ds001894,sub-001,ses-T1,task-VVWord,,run-02,317.379,4.4,1,O+P+,2.133,1,vase.bmp,chase.bmp
ds001894_sub-0001,ds001894,sub-001,ses-T1,task-VVWord,,run-02,321.797,4,6,perceptual,1.761,1,f.bmp,n.bmp
ds001894_sub-0001,ds001894,sub-001,ses-T1,task-VVWord,,run-02,325.813,4.8,1,O+P+,1.977,1,flood.bmp,blood.bmp
ds001894_sub-0001,ds001894,sub-001,ses-T1,task-VVWord,,run-02,330.619,4,3,O-P+,1.436,1,quart.bmp,port.bmp
ds001894_sub-0001,ds001894,sub-001,ses-T1,task-VVWord,,run-02,334.636,4.4,5,control,NA,0,blackcross.bmp,blackcross.bmp
ds001894_sub-0001,ds001894,sub-001,ses-T1,task-VVWord,,run-02,339.054,4,2,O+P-,1.613,1,swap.bmp,gap.bmp
ds001894_sub-0001,ds001894,sub-001,ses-T1,task-VVWord,,run-02,343.07,4,1,O+P+,NA,0,frost.bmp,cost.bmp
ds001894_sub-0001,ds001894,sub-001,ses-T1,task-VVWord,,run-02,347.087,4.8,5,control,2.587,1,blackcross.bmp,blackcross.bmp
ds001894_sub-0001,ds001894,sub-001,ses-T1,task-VVWord,,run-02,351.893,4.4,5,control,1.811,1,blackcross.bmp,blackcross.bmp
ds001894_sub-0001,ds001894,sub-001,ses-T1,task-VVWord,,run-02,356.311,4.8,1,O+P+,NA,0,harm.bmp,farm.bmp
ds001894_sub-0001,ds001894,sub-001,ses-T1,task-VVWord,,run-02,361.118,4.8,2,O+P-,0.122,0,scratch.bmp,watch.bmp
ds001894_sub-0001,ds001894,sub-001,ses-T1,task-VVWord,,run-02,365.924,5.2,5,control,NA,0,blackcross.bmp,blackcross.bmp
ds001894_sub-0002,ds001894,sub-002,ses-T1,task-VVWord,,run-01,0,4,2,O+P-,2.287,1,post.bmp,cost.bmp
ds001894_sub-0002,ds001894,sub-002,ses-T1,task-VVWord,,run-01,4.02800000000001,4,5,control,1.879,1,blackcross.bmp,blackcross.bmp
ds001894_sub-0002,ds001894,sub-002,ses-T1,task-VVWord,,run-01,8.057,4.4,6,perceptual,1.432,1,o.bmp,p.bmp
ds001894_sub-0002,ds001894,sub-002,ses-T1,task-VVWord,,run-01,12.471,4,3,O-P+,1.571,1,rum.bmp,numb.bmp
ds001894_sub-0002,ds001894,sub-002,ses-T1,task-VVWord,,run-01,16.484,4.8,5,control,1.855,1,blackcross.bmp,blackcross.bmp
ds001894_sub-0002,ds001894,sub-002,ses-T1,task-VVWord,,run-01,21.299,4,6,perceptual,1.399,1,c.bmp,u.bmp
ds001894_sub-0002,ds001894,sub-002,ses-T1,task-VVWord,,run-01,25.312,4,1,O+P+,1.747,1,fought.bmp,sought.bmp
ds001894_sub-0002,ds001894,sub-002,ses-T1,task-VVWord,,run-01,29.324,4,1,O+P+,1.57,1,scheme.bmp,theme.bmp
ds001894_sub-0002,ds001894,sub-002,ses-T1,task-VVWord,,run-01,33.337,4,6,perceptual,1.647,1,m.bmp,n.bmp
ds001894_sub-0002,ds001894,sub-002,ses-T1,task-VVWord,,run-01,37.35,4.4,1,O+P+,1.544,1,stool.bmp,fool.bmp
ds001894_sub-0002,ds001894,sub-002,ses-T1,task-VVWord,,run-01,41.764,4.4,5,control,1.74,1,blackcross.bmp,blackcross.bmp
ds001894_sub-0002,ds001894,sub-002,ses-T1,task-VVWord,,run-01,46.178,4.4,1,O+P+,1.173,1,soak.bmp,oak.bmp
ds001894_sub-0002,ds001894,sub-002,ses-T1,task-VVWord,,run-01,50.592,4.4,2,O+P-,1.695,1,threat.bmp,wheat.bmp
ds001894_sub-0002,ds001894,sub-002,ses-T1,task-VVWord,,run-01,55.006,4,1,O+P+,2.268,1,thread.bmp,spread.bmp
ds001894_sub-0002,ds001894,sub-002,ses-T1,task-VVWord,,run-01,59.019,4.4,3,O-P+,1.77,1,pile.bmp,trial.bmp
ds001894_sub-0002,ds001894,sub-002,ses-T1,task-VVWord,,run-01,63.432,4.8,4,O-P-,1.7,1,swap.bmp,watch.bmp
ds001894_sub-0002,ds001894,sub-002,ses-T1,task-VVWord,,run-01,68.248,4.8,5,control,1.825,1,blackcross.bmp,blackcross.bmp
ds001894_sub-0002,ds001894,sub-002,ses-T1,task-VVWord,,run-01,73.063,4.4,5,control,1.499,1,blackcross.bmp,blackcross.bmp
ds001894_sub-0002,ds001894,sub-002,ses-T1,task-VVWord,,run-01,77.477,4.4,4,O-P-,2.008,1,tough.bmp,dull.bmp
ds001894_sub-0002,ds001894,sub-002,ses-T1,task-VVWord,,run-01,81.891,4.8,6,perceptual,1.308,1,w.bmp,e.bmp
ds001894_sub-0002,ds001894,sub-002,ses-T1,task-VVWord,,run-01,86.706,4.8,1,O+P+,1.742,1,sweep.bmp,creep.bmp
ds001894_sub-0002,ds001894,sub-002,ses-T1,task-VVWord,,run-01,91.521,4.8,6,perceptual,1.493,1,k.bmp,t.bmp
ds001894_sub-0002,ds001894,sub-002,ses-T1,task-VVWord,,run-01,96.337,4.4,5,control,1.507,1,blackcross.bmp,blackcross.bmp
ds001894_sub-0002,ds001894,sub-002,ses-T1,task-VVWord,,run-01,100.751,4.4,3,O-P+,1.247,1,stroke.bmp,soak.bmp
ds001894_sub-0002,ds001894,sub-002,ses-T1,task-VVWord,,run-01,105.165,4.4,4,O-P-,1.85,1,trial.bmp,fall.bmp
ds001894_sub-0002,ds001894,sub-002,ses-T1,task-VVWord,,run-01,109.579,4.8,6,perceptual,1.379,1,k.bmp,l.bmp
ds001894_sub-0002,ds001894,sub-002,ses-T1,task-VVWord,,run-01,114.394,4,5,control,1.73,1,blackcross.bmp,blackcross.bmp
ds001894_sub-0002,ds001894,sub-002,ses-T1,task-VVWord,,run-01,118.407,4.4,5,control,1.968,1,blackcross.bmp,blackcross.bmp
ds001894_sub-0002,ds001894,sub-002,ses-T1,task-VVWord,,run-01,122.821,4.4,5,control,1.711,1,blackcross.bmp,blackcross.bmp
ds001894_sub-0002,ds001894,sub-002,ses-T1,task-VVWord,,run-01,127.235,4.4,5,control,1.505,1,blackcross.bmp,blackcross.bmp
ds001894_sub-0002,ds001894,sub-002,ses-T1,task-VVWord,,run-01,131.649,4,1,O+P+,1.058,1,beef.bmp,reef.bmp
ds001894_sub-0002,ds001894,sub-002,ses-T1,task-VVWord,,run-01,135.661,4,5,control,1.84,1,blackcross.bmp,blackcross.bmp
ds001894_sub-0002,ds001894,sub-002,ses-T1,task-VVWord,,run-01,139.674,4.8,2,O+P-,1.625,1,wart.bmp,smart.bmp
ds001894_sub-0002,ds001894,sub-002,ses-T1,task-VVWord,,run-01,144.489,4.8,2,O+P-,0.985,0,dose.bmp,pose.bmp
ds001894_sub-0002,ds001894,sub-002,ses-T1,task-VVWord,,run-01,149.304,4.4,5,control,1.428,1,blackcross.bmp,blackcross.bmp
ds001894_sub-0002,ds001894,sub-002,ses-T1,task-VVWord,,run-01,153.718,4,2,O+P-,1.442,1,touch.bmp,couch.bmp
ds001894_sub-0002,ds001894,sub-002,ses-T1,task-VVWord,,run-01,157.731,4,6,perceptual,1.603,1,v.bmp,m.bmp
ds001894_sub-0002,ds001894,sub-002,ses-T1,task-VVWord,,run-01,161.744,4.8,5,control,1.876,0,blackcross.bmp,blackcross.bmp
ds001894_sub-0002,ds001894,sub-002,ses-T1,task-VVWord,,run-01,166.559,4.8,5,control,1.594,1,blackcross.bmp,blackcross.bmp
ds001894_sub-0002,ds001894,sub-002,ses-T1,task-VVWord,,run-01,171.374,4.4,5,control,1.483,1,blackcross.bmp,blackcross.bmp
ds001894_sub-0002,ds001894,sub-002,ses-T1,task-VVWord,,run-01,175.788,4,5,control,1.647,1,blackcross.bmp,blackcross.bmp
ds001894_sub-0002,ds001894,sub-002,ses-T1,task-VVWord,,run-01,179.801,4.8,5,control,1.56,1,blackcross.bmp,blackcross.bmp
ds001894_sub-0002,ds001894,sub-002,ses-T1,task-VVWord,,run-01,184.616,4.4,4,O-P-,1.237,1,port.bmp,warm.bmp
ds001894_sub-0002,ds001894,sub-002,ses-T1,task-VVWord,,run-01,189.03,4.8,3,O-P+,1.351,1,june.bmp,noon.bmp
ds001894_sub-0002,ds001894,sub-002,ses-T1,task-VVWord,,run-01,193.846,4.4,4,O-P-,1.344,1,wreath.bmp,leap.bmp
ds001894_sub-0002,ds001894,sub-002,ses-T1,task-VVWord,,run-01,198.259,4,5,control,1.171,1,blackcross.bmp,blackcross.bmp
ds001894_sub-0002,ds001894,sub-002,ses-T1,task-VVWord,,run-01,202.272,4.4,6,perceptual,1.377,1,c.bmp,d.bmp
ds001894_sub-0002,ds001894,sub-002,ses-T1,task-VVWord,,run-01,206.686,4.4,2,O+P-,1.452,0,glove.bmp,stove.bmp
ds001894_sub-0002,ds001894,sub-002,ses-T1,task-VVWord,,run-01,211.1,4.8,1,O+P+,1.457,1,numb.bmp,crumb.bmp
ds001894_sub-0002,ds001894,sub-002,ses-T1,task-VVWord,,run-01,215.915,4.8,2,O+P-,1.961,1,stood.bmp,flood.bmp
ds001894_sub-0002,ds001894,sub-002,ses-T1,task-VVWord,,run-01,220.731,4.4,6,perceptual,1.6,1,i.bmp,j.bmp
ds001894_sub-0002,ds001894,sub-002,ses-T1,task-VVWord,,run-01,225.145,4.8,4,O-P-,1.504,1,smart.bmp,drought.bmp
ds001894_sub-0002,ds001894,sub-002,ses-T1,task-VVWord,,run-01,229.96,4.4,3,O-P+,1.574,1,stir.bmp,blur.bmp
ds001894_sub-0002,ds001894,sub-002,ses-T1,task-VVWord,,run-01,234.374,4.4,5,control,1.456,1,blackcross.bmp,blackcross.bmp
ds001894_sub-0002,ds001894,sub-002,ses-T1,task-VVWord,,run-01,238.788,4.8,5,control,1.43,1,blackcross.bmp,blackcross.bmp
ds001894_sub-0002,ds001894,sub-002,ses-T1,task-VVWord,,run-01,243.603,4.8,2,O+P-,1.925,1,pool.bmp,wool.bmp
ds001894_sub-0002,ds001894,sub-002,ses-T1,task-VVWord,,run-01,248.418,4,5,control,1.62,1,blackcross.bmp,blackcross.bmp
ds001894_sub-0002,ds001894,sub-002,ses-T1,task-VVWord,,run-01,252.431,4.4,5,control,1.638,1,blackcross.bmp,blackcross.bmp
ds001894_sub-0002,ds001894,sub-002,ses-T1,task-VVWord,,run-01,256.845,4.4,2,O+P-,1.401,1,fought.bmp,drought.bmp
ds001894_sub-0002,ds001894,sub-002,ses-T1,task-VVWord,,run-01,261.259,4,3,O-P+,2.482,1,flight.bmp,spite.bmp
ds001894_sub-0002,ds001894,sub-002,ses-T1,task-VVWord,,run-01,265.272,4.4,3,O-P+,1.923,1,scheme.bmp,cream.bmp
ds001894_sub-0002,ds001894,sub-002,ses-T1,task-VVWord,,run-01,269.686,4,6,perceptual,1.517,0,z.bmp,g.bmp
ds001894_sub-0002,ds001894,sub-002,ses-T1,task-VVWord,,run-01,273.698,4.8,4,O-P-,1.485,1,ghost.bmp,pose.bmp
ds001894_sub-0002,ds001894,sub-002,ses-T1,task-VVWord,,run-01,278.514,4.4,5,control,1.662,1,blackcross.bmp,blackcross.bmp
ds001894_sub-0002,ds001894,sub-002,ses-T1,task-VVWord,,run-01,282.928,4,4,O-P-,1.53,1,grace.bmp,fence.bmp
ds001894_sub-0002,ds001894,sub-002,ses-T1,task-VVWord,,run-01,286.94,4,4,O-P-,NA,0,dried.bmp,stood.bmp
ds001894_sub-0002,ds001894,sub-002,ses-T1,task-VVWord,,run-01,290.953,4,4,O-P-,2.204,1,ford.bmp,rod.bmp
ds001894_sub-0002,ds001894,sub-002,ses-T1,task-VVWord,,run-01,294.966,4.4,1,O+P+,1.366,1,strap.bmp,gap.bmp
ds001894_sub-0002,ds001894,sub-002,ses-T1,task-VVWord,,run-01,299.38,4.8,6,perceptual,1.136,1,e.bmp,f.bmp
ds001894_sub-0002,ds001894,sub-002,ses-T1,task-VVWord,,run-01,304.195,4,5,control,1.788,1,blackcross.bmp,blackcross.bmp
ds001894_sub-0002,ds001894,sub-002,ses-T1,task-VVWord,,run-01,308.208,4,4,O-P-,2.606,1,gross.bmp,post.bmp
ds001894_sub-0002,ds001894,sub-002,ses-T1,task-VVWord,,run-01,312.22,4,4,O-P-,2.141,1,fault.bmp,note.bmp
ds001894_sub-0002,ds001894,sub-002,ses-T1,task-VVWord,,run-01,316.233,4.8,1,O+P+,1.67,1,bull.bmp,full.bmp
ds001894_sub-0002,ds001894,sub-002,ses-T1,task-VVWord,,run-01,321.048,4.8,3,O-P+,1.86,1,chase.bmp,grace.bmp
ds001894_sub-0002,ds001894,sub-002,ses-T1,task-VVWord,,run-01,325.864,4,3,O-P+,1.807,1,float.bmp,note.bmp
ds001894_sub-0002,ds001894,sub-002,ses-T1,task-VVWord,,run-01,329.876,4.8,3,O-P+,1.941,1,bride.bmp,dried.bmp
ds001894_sub-0002,ds001894,sub-002,ses-T1,task-VVWord,,run-01,334.692,4.8,4,O-P-,1.609,1,thief.bmp,plead.bmp
ds001894_sub-0002,ds001894,sub-002,ses-T1,task-VVWord,,run-01,339.507,4.4,1,O+P+,1.597,1,bluff.bmp,puff.bmp
ds001894_sub-0002,ds001894,sub-002,ses-T1,task-VVWord,,run-01,343.921,4.8,6,perceptual,1.345,1,v.bmp,w.bmp
ds001894_sub-0002,ds001894,sub-002,ses-T1,task-VVWord,,run-01,348.736,4.8,1,O+P+,2.379,1,shove.bmp,glove.bmp
ds001894_sub-0002,ds001894,sub-002,ses-T1,task-VVWord,,run-01,353.551,4.4,6,perceptual,1.179,1,y.bmp,o.bmp
ds001894_sub-0002,ds001894,sub-002,ses-T1,task-VVWord,,run-01,357.965,4.8,2,O+P-,1.33,1,stamp.bmp,swamp.bmp
ds001894_sub-0002,ds001894,sub-002,ses-T1,task-VVWord,,run-01,362.781,4.4,4,O-P-,2.391,1,stamp.bmp,tomb.bmp
ds001894_sub-0002,ds001894,sub-002,ses-T1,task-VVWord,,run-01,367.195,4,5,control,1.844,1,blackcross.bmp,blackcross.bmp
ds001894_sub-0002,ds001894,sub-002,ses-T1,task-VVWord,,run-02,0,4.8,6,perceptual,1.462,1,a.bmp,s.bmp
ds001894_sub-0002,ds001894,sub-002,ses-T1,task-VVWord,,run-02,4.815,4.8,3,O-P+,1.706,1,fall.bmp,crawl.bmp
ds001894_sub-0002,ds001894,sub-002,ses-T1,task-VVWord,,run-02,9.63,4.4,3,O-P+,2.143,1,leap.bmp,sweep.bmp
ds001894_sub-0002,ds001894,sub-002,ses-T1,task-VVWord,,run-02,14.044,4,3,O-P+,2.585,1,tense.bmp,fence.bmp
ds001894_sub-0002,ds001894,sub-002,ses-T1,task-VVWord,,run-02,18.057,4,3,O-P+,1.706,1,soup.bmp,loop.bmp
ds001894_sub-0002,ds001894,sub-002,ses-T1,task-VVWord,,run-02,22.07,4.4,6,perceptual,3.012,0,j.bmp,b.bmp
ds001894_sub-0002,ds001894,sub-002,ses-T1,task-VVWord,,run-02,26.483,4,6,perceptual,2.574,0,h.bmp,p.bmp
ds001894_sub-0002,ds001894,sub-002,ses-T1,task-VVWord,,run-02,30.496,4,4,O-P-,1.261,1,pool.bmp,tooth.bmp
ds001894_sub-0002,ds001894,sub-002,ses-T1,task-VVWord,,run-02,34.509,4.8,4,O-P-,2.231,0,both.bmp,stroke.bmp
ds001894_sub-0002,ds001894,sub-002,ses-T1,task-VVWord,,run-02,39.324,4,1,O+P+,1.548,1,quart.bmp,wart.bmp
ds001894_sub-0002,ds001894,sub-002,ses-T1,task-VVWord,,run-02,43.337,4.8,5,control,1.641,1,blackcross.bmp,blackcross.bmp
ds001894_sub-0002,ds001894,sub-002,ses-T1,task-VVWord,,run-02,48.152,4.4,6,perceptual,1.251,1,a.bmp,b.bmp
ds001894_sub-0002,ds001894,sub-002,ses-T1,task-VVWord,,run-02,52.566,4.4,2,O+P-,1.459,0,pint.bmp,hint.bmp
ds001894_sub-0002,ds001894,sub-002,ses-T1,task-VVWord,,run-02,56.98,4.4,3,O-P+,2.074,1,wheel.bmp,deal.bmp
ds001894_sub-0002,ds001894,sub-002,ses-T1,task-VVWord,,run-02,61.394,4,2,O+P-,2.303,1,smooth.bmp,tooth.bmp
ds001894_sub-0002,ds001894,sub-002,ses-T1,task-VVWord,,run-02,65.407,4,3,O-P+,1.233,1,stool.bmp,rule.bmp
ds001894_sub-0002,ds001894,sub-002,ses-T1,task-VVWord,,run-02,69.42,4,5,control,1.643,1,blackcross.bmp,blackcross.bmp
ds001894_sub-0002,ds001894,sub-002,ses-T1,task-VVWord,,run-02,73.432,4,5,control,1.548,1,blackcross.bmp,blackcross.bmp
ds001894_sub-0002,ds001894,sub-002,ses-T1,task-VVWord,,run-02,77.445,4.4,5,control,1.47,1,blackcross.bmp,blackcross.bmp
ds001894_sub-0002,ds001894,sub-002,ses-T1,task-VVWord,,run-02,81.859,4.4,4,O-P-,1.293,1,flight.bmp,threat.bmp
ds001894_sub-0002,ds001894,sub-002,ses-T1,task-VVWord,,run-02,86.273,4.4,3,O-P+,1.469,1,bluff.bmp,tough.bmp
ds001894_sub-0002,ds001894,sub-002,ses-T1,task-VVWord,,run-02,90.687,4.8,6,perceptual,1.176,1,i.bmp,r.bmp
ds001894_sub-0002,ds001894,sub-002,ses-T1,task-VVWord,,run-02,95.502,4.8,3,O-P+,1.395,1,halt.bmp,fault.bmp
ds001894_sub-0002,ds001894,sub-002,ses-T1,task-VVWord,,run-02,100.317,4.4,2,O+P-,2.372,1,dull.bmp,bull.bmp
ds001894_sub-0002,ds001894,sub-002,ses-T1,task-VVWord,,run-02,104.731,4,1,O+P+,1.82,1,brow.bmp,cow.bmp
ds001894_sub-0002,ds001894,sub-002,ses-T1,task-VVWord,,run-02,108.744,4.8,1,O+P+,2.077,1,goat.bmp,float.bmp
ds001894_sub-0002,ds001894,sub-002,ses-T1,task-VVWord,,run-02,113.559,4,1,O+P+,1.239,1,glide.bmp,bride.bmp
ds001894_sub-0002,ds001894,sub-002,ses-T1,task-VVWord,,run-02,117.572,4,5,control,1.929,1,blackcross.bmp,blackcross.bmp
ds001894_sub-0002,ds001894,sub-002,ses-T1,task-VVWord,,run-02,121.585,4,5,control,1.67,1,blackcross.bmp,blackcross.bmp
ds001894_sub-0002,ds001894,sub-002,ses-T1,task-VVWord,,run-02,125.597,4,5,control,1.667,1,blackcross.bmp,blackcross.bmp
ds001894_sub-0002,ds001894,sub-002,ses-T1,task-VVWord,,run-02,129.61,4.8,2,O+P-,1.925,1,plead.bmp,spread.bmp
ds001894_sub-0002,ds001894,sub-002,ses-T1,task-VVWord,,run-02,134.425,4.4,6,perceptual,2.035,1,t.bmp,u.bmp
ds001894_sub-0002,ds001894,sub-002,ses-T1,task-VVWord,,run-02,138.839,4.8,3,O-P+,2.278,1,roast.bmp,ghost.bmp
ds001894_sub-0002,ds001894,sub-002,ses-T1,task-VVWord,,run-02,143.655,4,6,perceptual,1.29,1,y.bmp,z.bmp
ds001894_sub-0002,ds001894,sub-002,ses-T1,task-VVWord,,run-02,147.667,4.8,5,control,1.512,1,blackcross.bmp,blackcross.bmp
ds001894_sub-0002,ds001894,sub-002,ses-T1,task-VVWord,,run-02,152.483,4.8,3,O-P+,1.968,1,odd.bmp,rod.bmp
ds001894_sub-0002,ds001894,sub-002,ses-T1,task-VVWord,,run-02,157.298,4.4,1,O+P+,2.472,1,spoon.bmp,noon.bmp
ds001894_sub-0002,ds001894,sub-002,ses-T1,task-VVWord,,run-02,161.712,4.8,5,control,1.988,1,blackcross.bmp,blackcross.bmp
ds001894_sub-0002,ds001894,sub-002,ses-T1,task-VVWord,,run-02,166.527,4.8,5,control,1.57,1,blackcross.bmp,blackcross.bmp
ds001894_sub-0002,ds001894,sub-002,ses-T1,task-VVWord,,run-02,171.342,4.8,5,control,2.06,1,blackcross.bmp,blackcross.bmp
ds001894_sub-0002,ds001894,sub-002,ses-T1,task-VVWord,,run-02,176.158,4,5,control,1.58,1,blackcross.bmp,blackcross.bmp
ds001894_sub-0002,ds001894,sub-002,ses-T1,task-VVWord,,run-02,180.17,4.8,5,control,1.271,1,blackcross.bmp,blackcross.bmp
ds001894_sub-0002,ds001894,sub-002,ses-T1,task-VVWord,,run-02,184.985,4,2,O+P-,1.915,1,breath.bmp,wreath.bmp
ds001894_sub-0002,ds001894,sub-002,ses-T1,task-VVWord,,run-02,188.998,4.4,1,O+P+,1.991,1,neat.bmp,wheat.bmp
ds001894_sub-0002,ds001894,sub-002,ses-T1,task-VVWord,,run-02,193.412,4,2,O+P-,1.903,0,mouth.bmp,youth.bmp
ds001894_sub-0002,ds001894,sub-002,ses-T1,task-VVWord,,run-02,197.425,4.8,1,O+P+,1.727,1,toss.bmp,moss.bmp
ds001894_sub-0002,ds001894,sub-002,ses-T1,task-VVWord,,run-02,202.24,4.8,5,control,1.474,1,blackcross.bmp,blackcross.bmp
ds001894_sub-0002,ds001894,sub-002,ses-T1,task-VVWord,,run-02,207.055,4.4,6,perceptual,1.541,1,g.bmp,h.bmp
ds001894_sub-0002,ds001894,sub-002,ses-T1,task-VVWord,,run-02,211.469,4.8,4,O-P-,3.503,1,rule.bmp,blur.bmp
ds001894_sub-0002,ds001894,sub-002,ses-T1,task-VVWord,,run-02,216.285,4,2,O+P-,NA,0,tomb.bmp,comb.bmp
ds001894_sub-0002,ds001894,sub-002,ses-T1,task-VVWord,,run-02,220.297,4.8,6,perceptual,1.095,1,r.bmp,s.bmp
ds001894_sub-0002,ds001894,sub-002,ses-T1,task-VVWord,,run-02,225.113,4,4,O-P-,1.102,1,june.bmp,loop.bmp
ds001894_sub-0002,ds001894,sub-002,ses-T1,task-VVWord,,run-02,229.125,4.4,3,O-P+,1.034,0,warm.bmp,form.bmp
ds001894_sub-0002,ds001894,sub-002,ses-T1,task-VVWord,,run-02,233.539,4.4,4,O-P-,1.571,1,rum.bmp,touch.bmp
ds001894_sub-0002,ds001894,sub-002,ses-T1,task-VVWord,,run-02,237.953,4,2,O+P-,2.071,1,gross.bmp,moss.bmp
ds001894_sub-0002,ds001894,sub-002,ses-T1,task-VVWord,,run-02,241.966,4,4,O-P-,1.742,1,glow.bmp,stove.bmp
ds001894_sub-0002,ds001894,sub-002,ses-T1,task-VVWord,,run-02,245.979,4.8,5,control,1.631,1,blackcross.bmp,blackcross.bmp
ds001894_sub-0002,ds001894,sub-002,ses-T1,task-VVWord,,run-02,250.794,4.8,4,O-P-,1.502,1,wheel.bmp,sneak.bmp
ds001894_sub-0002,ds001894,sub-002,ses-T1,task-VVWord,,run-02,255.609,4,5,control,2.154,1,blackcross.bmp,blackcross.bmp
ds001894_sub-0002,ds001894,sub-002,ses-T1,task-VVWord,,run-02,259.622,4.4,2,O+P-,1.242,1,cow.bmp,glow.bmp
ds001894_sub-0002,ds001894,sub-002,ses-T1,task-VVWord,,run-02,264.036,4.4,1,O+P+,1.762,1,pile.bmp,mile.bmp
ds001894_sub-0002,ds001894,sub-002,ses-T1,task-VVWord,,run-02,268.45,4.8,3,O-P+,2.735,0,cheek.bmp,sneak.bmp
ds001894_sub-0002,ds001894,sub-002,ses-T1,task-VVWord,,run-02,273.265,4.4,4,O-P-,1.278,1,youth.bmp,hint.bmp
ds001894_sub-0002,ds001894,sub-002,ses-T1,task-VVWord,,run-02,277.679,4.4,5,control,1.424,1,blackcross.bmp,blackcross.bmp
ds001894_sub-0002,ds001894,sub-002,ses-T1,task-VVWord,,run-02,282.093,4,3,O-P+,1.609,1,thief.bmp,beef.bmp
ds001894_sub-0002,ds001894,sub-002,ses-T1,task-VVWord,,run-02,286.106,4.4,5,control,1.473,1,blackcross.bmp,blackcross.bmp
ds001894_sub-0002,ds001894,sub-002,ses-T1,task-VVWord,,run-02,290.52,4.8,2,O+P-,1.413,1,swarm.bmp,harm.bmp
ds001894_sub-0002,ds001894,sub-002,ses-T1,task-VVWord,,run-02,295.335,4,6,perceptual,1.453,1,l.bmp,d.bmp
ds001894_sub-0002,ds001894,sub-002,ses-T1,task-VVWord,,run-02,299.348,4.4,2,O+P-,2.07,1,both.bmp,cloth.bmp
ds001894_sub-0002,ds001894,sub-002,ses-T1,task-VVWord,,run-02,303.762,4.4,5,control,1.507,1,blackcross.bmp,blackcross.bmp
ds001894_sub-0002,ds001894,sub-002,ses-T1,task-VVWord,,run-02,308.176,4.8,4,O-P-,1.49,1,cream.bmp,swarm.bmp
ds001894_sub-0002,ds001894,sub-002,ses-T1,task-VVWord,,run-02,312.991,4.4,2,O+P-,1.532,1,ford.bmp,word.bmp
ds001894_sub-0002,ds001894,sub-002,ses-T1,task-VVWord,,run-02,317.405,4.4,1,O+P+,2.439,1,vase.bmp,chase.bmp
ds001894_sub-0002,ds001894,sub-002,ses-T1,task-VVWord,,run-02,321.819,4,6,perceptual,1.916,1,f.bmp,n.bmp
ds001894_sub-0002,ds001894,sub-002,ses-T1,task-VVWord,,run-02,325.832,4.8,1,O+P+,1.811,1,flood.bmp,blood.bmp
ds001894_sub-0002,ds001894,sub-002,ses-T1,task-VVWord,,run-02,330.647,4,3,O-P+,1.507,1,quart.bmp,port.bmp
ds001894_sub-0002,ds001894,sub-002,ses-T1,task-VVWord,,run-02,334.66,4.4,5,control,1.948,1,blackcross.bmp,blackcross.bmp
ds001894_sub-0002,ds001894,sub-002,ses-T1,task-VVWord,,run-02,339.073,4,2,O+P-,1.501,1,swap.bmp,gap.bmp
ds001894_sub-0002,ds001894,sub-002,ses-T1,task-VVWord,,run-02,343.086,4,1,O+P+,1.717,1,frost.bmp,cost.bmp
ds001894_sub-0002,ds001894,sub-002,ses-T1,task-VVWord,,run-02,347.099,4.8,5,control,1.559,1,blackcross.bmp,blackcross.bmp
ds001894_sub-0002,ds001894,sub-002,ses-T1,task-VVWord,,run-02,351.914,4.4,5,control,1.799,1,blackcross.bmp,blackcross.bmp
ds001894_sub-0002,ds001894,sub-002,ses-T1,task-VVWord,,run-02,356.328,4.8,1,O+P+,1.84,1,harm.bmp,farm.bmp
ds001894_sub-0002,ds001894,sub-002,ses-T1,task-VVWord,,run-02,361.143,4.8,2,O+P-,1.099,1,scratch.bmp,watch.bmp
ds001894_sub-0002,ds001894,sub-002,ses-T1,task-VVWord,,run-02,365.959,5.2,5,control,1.482,1,blackcross.bmp,blackcross.bmp
ds001894_sub-0003,ds001894,sub-003,ses-T1,task-VVWord,,run-01,0,4,2,O+P-,1.253,0,post.bmp,cost.bmp
ds001894_sub-0003,ds001894,sub-003,ses-T1,task-VVWord,,run-01,4.012,4,5,control,2.016,1,blackcross.bmp,blackcross.bmp
ds001894_sub-0003,ds001894,sub-003,ses-T1,task-VVWord,,run-01,8.025,4.4,6,perceptual,1.52,1,o.bmp,p.bmp
ds001894_sub-0003,ds001894,sub-003,ses-T1,task-VVWord,,run-01,12.44,4,3,O-P+,1.074,1,rum.bmp,numb.bmp
ds001894_sub-0003,ds001894,sub-003,ses-T1,task-VVWord,,run-01,16.453,4.8,5,control,1.616,1,blackcross.bmp,blackcross.bmp
ds001894_sub-0003,ds001894,sub-003,ses-T1,task-VVWord,,run-01,21.269,4,6,perceptual,1.238,1,c.bmp,u.bmp
ds001894_sub-0003,ds001894,sub-003,ses-T1,task-VVWord,,run-01,25.283,4,1,O+P+,0.868,1,fought.bmp,sought.bmp
ds001894_sub-0003,ds001894,sub-003,ses-T1,task-VVWord,,run-01,29.296,4,1,O+P+,1.336,1,scheme.bmp,theme.bmp
ds001894_sub-0003,ds001894,sub-003,ses-T1,task-VVWord,,run-01,33.309,4,6,perceptual,0.913,1,m.bmp,n.bmp
ds001894_sub-0003,ds001894,sub-003,ses-T1,task-VVWord,,run-01,37.323,4.4,1,O+P+,1.341,1,stool.bmp,fool.bmp
ds001894_sub-0003,ds001894,sub-003,ses-T1,task-VVWord,,run-01,41.737,4.4,5,control,1.725,1,blackcross.bmp,blackcross.bmp
ds001894_sub-0003,ds001894,sub-003,ses-T1,task-VVWord,,run-01,46.152,4.4,1,O+P+,0.863,1,soak.bmp,oak.bmp
ds001894_sub-0003,ds001894,sub-003,ses-T1,task-VVWord,,run-01,50.567,4.4,2,O+P-,1.06,0,threat.bmp,wheat.bmp
ds001894_sub-0003,ds001894,sub-003,ses-T1,task-VVWord,,run-01,54.981,4,1,O+P+,1.382,1,thread.bmp,spread.bmp
ds001894_sub-0003,ds001894,sub-003,ses-T1,task-VVWord,,run-01,58.995,4.4,3,O-P+,1.398,1,pile.bmp,trial.bmp
ds001894_sub-0003,ds001894,sub-003,ses-T1,task-VVWord,,run-01,63.409,4.8,4,O-P-,1.728,1,swap.bmp,watch.bmp
ds001894_sub-0003,ds001894,sub-003,ses-T1,task-VVWord,,run-01,68.225,4.8,5,control,2.177,1,blackcross.bmp,blackcross.bmp
ds001894_sub-0003,ds001894,sub-003,ses-T1,task-VVWord,,run-01,73.041,4.4,5,control,1.676,1,blackcross.bmp,blackcross.bmp
ds001894_sub-0003,ds001894,sub-003,ses-T1,task-VVWord,,run-01,77.456,4.4,4,O-P-,2.076,1,tough.bmp,dull.bmp
ds001894_sub-0003,ds001894,sub-003,ses-T1,task-VVWord,,run-01,81.871,4.8,6,perceptual,1.441,1,w.bmp,e.bmp
ds001894_sub-0003,ds001894,sub-003,ses-T1,task-VVWord,,run-01,86.687,4.8,1,O+P+,1.554,1,sweep.bmp,creep.bmp
ds001894_sub-0003,ds001894,sub-003,ses-T1,task-VVWord,,run-01,91.503,4.8,6,perceptual,1.387,1,k.bmp,t.bmp
ds001894_sub-0003,ds001894,sub-003,ses-T1,task-VVWord,,run-01,96.319,4.4,5,control,1.796,1,blackcross.bmp,blackcross.bmp
ds001894_sub-0003,ds001894,sub-003,ses-T1,task-VVWord,,run-01,100.734,4.4,3,O-P+,2.202,1,stroke.bmp,soak.bmp
ds001894_sub-0003,ds001894,sub-003,ses-T1,task-VVWord,,run-01,105.148,4.4,4,O-P-,1.169,0,trial.bmp,fall.bmp
ds001894_sub-0003,ds001894,sub-003,ses-T1,task-VVWord,,run-01,109.563,4.8,6,perceptual,1.967,1,k.bmp,l.bmp
ds001894_sub-0003,ds001894,sub-003,ses-T1,task-VVWord,,run-01,114.379,4,5,control,1.883,1,blackcross.bmp,blackcross.bmp
ds001894_sub-0003,ds001894,sub-003,ses-T1,task-VVWord,,run-01,118.392,4.4,5,control,2.267,1,blackcross.bmp,blackcross.bmp
ds001894_sub-0003,ds001894,sub-003,ses-T1,task-VVWord,,run-01,122.807,4.4,5,control,2.18,1,blackcross.bmp,blackcross.bmp
ds001894_sub-0003,ds001894,sub-003,ses-T1,task-VVWord,,run-01,127.222,4.4,5,control,2.194,1,blackcross.bmp,blackcross.bmp
ds001894_sub-0003,ds001894,sub-003,ses-T1,task-VVWord,,run-01,131.636,4,1,O+P+,1.343,1,beef.bmp,reef.bmp
ds001894_sub-0003,ds001894,sub-003,ses-T1,task-VVWord,,run-01,135.65,4,5,control,1.995,1,blackcross.bmp,blackcross.bmp
ds001894_sub-0003,ds001894,sub-003,ses-T1,task-VVWord,,run-01,139.663,4.8,2,O+P-,1.028,0,wart.bmp,smart.bmp
ds001894_sub-0003,ds001894,sub-003,ses-T1,task-VVWord,,run-01,144.479,4.8,2,O+P-,1.045,0,dose.bmp,pose.bmp
ds001894_sub-0003,ds001894,sub-003,ses-T1,task-VVWord,,run-01,149.295,4.4,5,control,1.606,1,blackcross.bmp,blackcross.bmp
ds001894_sub-0003,ds001894,sub-003,ses-T1,task-VVWord,,run-01,153.71,4,2,O+P-,1.301,0,touch.bmp,couch.bmp
ds001894_sub-0003,ds001894,sub-003,ses-T1,task-VVWord,,run-01,157.723,4,6,perceptual,1.723,1,v.bmp,m.bmp
ds001894_sub-0003,ds001894,sub-003,ses-T1,task-VVWord,,run-01,161.737,4.8,5,control,1.887,1,blackcross.bmp,blackcross.bmp
ds001894_sub-0003,ds001894,sub-003,ses-T1,task-VVWord,,run-01,166.553,4.8,5,control,2.004,1,blackcross.bmp,blackcross.bmp
ds001894_sub-0003,ds001894,sub-003,ses-T1,task-VVWord,,run-01,171.369,4.4,5,control,1.796,1,blackcross.bmp,blackcross.bmp
ds001894_sub-0003,ds001894,sub-003,ses-T1,task-VVWord,,run-01,175.783,4,5,control,1.859,1,blackcross.bmp,blackcross.bmp
ds001894_sub-0003,ds001894,sub-003,ses-T1,task-VVWord,,run-01,179.797,4.8,5,control,1.75,1,blackcross.bmp,blackcross.bmp
ds001894_sub-0003,ds001894,sub-003,ses-T1,task-VVWord,,run-01,184.613,4.4,4,O-P-,1.386,1,port.bmp,warm.bmp
ds001894_sub-0003,ds001894,sub-003,ses-T1,task-VVWord,,run-01,189.027,4.8,3,O-P+,1.657,1,june.bmp,noon.bmp
ds001894_sub-0003,ds001894,sub-003,ses-T1,task-VVWord,,run-01,193.843,4.4,4,O-P-,1.887,0,wreath.bmp,leap.bmp
ds001894_sub-0003,ds001894,sub-003,ses-T1,task-VVWord,,run-01,198.258,4,5,control,1.786,1,blackcross.bmp,blackcross.bmp
ds001894_sub-0003,ds001894,sub-003,ses-T1,task-VVWord,,run-01,202.272,4.4,6,perceptual,1.222,1,c.bmp,d.bmp
ds001894_sub-0003,ds001894,sub-003,ses-T1,task-VVWord,,run-01,206.686,4.4,2,O+P-,1.011,0,glove.bmp,stove.bmp
ds001894_sub-0003,ds001894,sub-003,ses-T1,task-VVWord,,run-01,211.101,4.8,1,O+P+,1.095,1,numb.bmp,crumb.bmp
ds001894_sub-0003,ds001894,sub-003,ses-T1,task-VVWord,,run-01,215.917,4.8,2,O+P-,1.782,1,stood.bmp,flood.bmp
ds001894_sub-0003,ds001894,sub-003,ses-T1,task-VVWord,,run-01,220.733,4.4,6,perceptual,1.499,1,i.bmp,j.bmp
ds001894_sub-0003,ds001894,sub-003,ses-T1,task-VVWord,,run-01,225.148,4.8,4,O-P-,1.829,1,smart.bmp,drought.bmp
ds001894_sub-0003,ds001894,sub-003,ses-T1,task-VVWord,,run-01,229.964,4.4,3,O-P+,1.762,1,stir.bmp,blur.bmp
ds001894_sub-0003,ds001894,sub-003,ses-T1,task-VVWord,,run-01,234.378,4.4,5,control,1.821,1,blackcross.bmp,blackcross.bmp
ds001894_sub-0003,ds001894,sub-003,ses-T1,task-VVWord,,run-01,238.793,4.8,5,control,1.85,1,blackcross.bmp,blackcross.bmp
ds001894_sub-0003,ds001894,sub-003,ses-T1,task-VVWord,,run-01,243.609,4.8,2,O+P-,1.52,0,pool.bmp,wool.bmp
ds001894_sub-0003,ds001894,sub-003,ses-T1,task-VVWord,,run-01,248.425,4,5,control,2.102,1,blackcross.bmp,blackcross.bmp
ds001894_sub-0003,ds001894,sub-003,ses-T1,task-VVWord,,run-01,252.438,4.4,5,control,2.033,1,blackcross.bmp,blackcross.bmp
ds001894_sub-0003,ds001894,sub-003,ses-T1,task-VVWord,,run-01,256.853,4.4,2,O+P-,1.697,0,fought.bmp,drought.bmp
ds001894_sub-0003,ds001894,sub-003,ses-T1,task-VVWord,,run-01,261.268,4,3,O-P+,2.302,1,flight.bmp,spite.bmp
ds001894_sub-0003,ds001894,sub-003,ses-T1,task-VVWord,,run-01,265.281,4.4,3,O-P+,1.944,1,scheme.bmp,cream.bmp
ds001894_sub-0003,ds001894,sub-003,ses-T1,task-VVWord,,run-01,269.696,4,6,perceptual,1.9,1,z.bmp,g.bmp
ds001894_sub-0003,ds001894,sub-003,ses-T1,task-VVWord,,run-01,273.709,4.8,4,O-P-,1.966,0,ghost.bmp,pose.bmp
ds001894_sub-0003,ds001894,sub-003,ses-T1,task-VVWord,,run-01,278.525,4.4,5,control,1.885,1,blackcross.bmp,blackcross.bmp
ds001894_sub-0003,ds001894,sub-003,ses-T1,task-VVWord,,run-01,282.94,4,4,O-P-,1.694,1,grace.bmp,fence.bmp
ds001894_sub-0003,ds001894,sub-003,ses-T1,task-VVWord,,run-01,286.953,4,4,O-P-,2.123,1,dried.bmp,stood.bmp
ds001894_sub-0003,ds001894,sub-003,ses-T1,task-VVWord,,run-01,290.967,4,4,O-P-,1.597,0,ford.bmp,rod.bmp
ds001894_sub-0003,ds001894,sub-003,ses-T1,task-VVWord,,run-01,294.98,4.4,1,O+P+,1.74,1,strap.bmp,gap.bmp
ds001894_sub-0003,ds001894,sub-003,ses-T1,task-VVWord,,run-01,299.395,4.8,6,perceptual,1.816,0,e.bmp,f.bmp
ds001894_sub-0003,ds001894,sub-003,ses-T1,task-VVWord,,run-01,304.211,4,5,control,2.12,1,blackcross.bmp,blackcross.bmp
ds001894_sub-0003,ds001894,sub-003,ses-T1,task-VVWord,,run-01,308.224,4,4,O-P-,2.33,1,gross.bmp,post.bmp
ds001894_sub-0003,ds001894,sub-003,ses-T1,task-VVWord,,run-01,312.237,4,4,O-P-,2.568,1,fault.bmp,note.bmp
ds001894_sub-0003,ds001894,sub-003,ses-T1,task-VVWord,,run-01,316.251,4.8,1,O+P+,1.485,1,bull.bmp,full.bmp
ds001894_sub-0003,ds001894,sub-003,ses-T1,task-VVWord,,run-01,321.067,4.8,3,O-P+,1.95,1,chase.bmp,grace.bmp
ds001894_sub-0003,ds001894,sub-003,ses-T1,task-VVWord,,run-01,325.883,4,3,O-P+,2.138,1,float.bmp,note.bmp
ds001894_sub-0003,ds001894,sub-003,ses-T1,task-VVWord,,run-01,329.896,4.8,3,O-P+,1.912,1,bride.bmp,dried.bmp
ds001894_sub-0003,ds001894,sub-003,ses-T1,task-VVWord,,run-01,334.712,4.8,4,O-P-,2.213,1,thief.bmp,plead.bmp
ds001894_sub-0003,ds001894,sub-003,ses-T1,task-VVWord,,run-01,339.528,4.4,1,O+P+,1.685,1,bluff.bmp,puff.bmp
ds001894_sub-0003,ds001894,sub-003,ses-T1,task-VVWord,,run-01,343.943,4.8,6,perceptual,2.006,0,v.bmp,w.bmp
ds001894_sub-0003,ds001894,sub-003,ses-T1,task-VVWord,,run-01,348.759,4.8,1,O+P+,1.794,1,shove.bmp,glove.bmp
ds001894_sub-0003,ds001894,sub-003,ses-T1,task-VVWord,,run-01,353.575,4.4,6,perceptual,1.719,1,y.bmp,o.bmp
ds001894_sub-0003,ds001894,sub-003,ses-T1,task-VVWord,,run-01,357.99,4.8,2,O+P-,2.254,1,stamp.bmp,swamp.bmp
ds001894_sub-0003,ds001894,sub-003,ses-T1,task-VVWord,,run-01,362.806,4.4,4,O-P-,2.341,1,stamp.bmp,tomb.bmp
ds001894_sub-0003,ds001894,sub-003,ses-T1,task-VVWord,,run-01,367.22,4,5,control,1.936,1,blackcross.bmp,blackcross.bmp
ds001894_sub-0003,ds001894,sub-003,ses-T1,task-VVWord,,run-02,0,4.8,6,perceptual,1.574,0,a.bmp,s.bmp
ds001894_sub-0003,ds001894,sub-003,ses-T1,task-VVWord,,run-02,4.817,4.8,3,O-P+,1.556,1,fall.bmp,crawl.bmp
ds001894_sub-0003,ds001894,sub-003,ses-T1,task-VVWord,,run-02,9.633,4.4,3,O-P+,1.599,1,leap.bmp,sweep.bmp
ds001894_sub-0003,ds001894,sub-003,ses-T1,task-VVWord,,run-02,14.047,4,3,O-P+,1.11,1,tense.bmp,fence.bmp
ds001894_sub-0003,ds001894,sub-003,ses-T1,task-VVWord,,run-02,18.061,4,3,O-P+,1.731,1,soup.bmp,loop.bmp
ds001894_sub-0003,ds001894,sub-003,ses-T1,task-VVWord,,run-02,22.074,4.4,6,perceptual,1.529,1,j.bmp,b.bmp
ds001894_sub-0003,ds001894,sub-003,ses-T1,task-VVWord,,run-02,26.489,4,6,perceptual,1.853,1,h.bmp,p.bmp
ds001894_sub-0003,ds001894,sub-003,ses-T1,task-VVWord,,run-02,30.502,4,4,O-P-,1.819,1,pool.bmp,tooth.bmp
ds001894_sub-0003,ds001894,sub-003,ses-T1,task-VVWord,,run-02,34.515,4.8,4,O-P-,2.039,1,both.bmp,stroke.bmp
ds001894_sub-0003,ds001894,sub-003,ses-T1,task-VVWord,,run-02,39.331,4,1,O+P+,1.741,1,quart.bmp,wart.bmp
ds001894_sub-0003,ds001894,sub-003,ses-T1,task-VVWord,,run-02,43.345,4.8,5,control,2.179,1,blackcross.bmp,blackcross.bmp
ds001894_sub-0003,ds001894,sub-003,ses-T1,task-VVWord,,run-02,48.161,4.4,6,perceptual,2.017,1,a.bmp,b.bmp
ds001894_sub-0003,ds001894,sub-003,ses-T1,task-VVWord,,run-02,52.575,4.4,2,O+P-,1.706,0,pint.bmp,hint.bmp
ds001894_sub-0003,ds001894,sub-003,ses-T1,task-VVWord,,run-02,56.99,4.4,3,O-P+,1.621,1,wheel.bmp,deal.bmp
ds001894_sub-0003,ds001894,sub-003,ses-T1,task-VVWord,,run-02,61.405,4,2,O+P-,1.826,0,smooth.bmp,tooth.bmp
ds001894_sub-0003,ds001894,sub-003,ses-T1,task-VVWord,,run-02,65.418,4,3,O-P+,2.044,1,stool.bmp,rule.bmp
ds001894_sub-0003,ds001894,sub-003,ses-T1,task-VVWord,,run-02,69.432,4,5,control,1.861,1,blackcross.bmp,blackcross.bmp
ds001894_sub-0003,ds001894,sub-003,ses-T1,task-VVWord,,run-02,73.445,4,5,control,1.824,1,blackcross.bmp,blackcross.bmp
ds001894_sub-0003,ds001894,sub-003,ses-T1,task-VVWord,,run-02,77.458,4.4,5,control,1.976,1,blackcross.bmp,blackcross.bmp
ds001894_sub-0003,ds001894,sub-003,ses-T1,task-VVWord,,run-02,81.873,4.4,4,O-P-,2.306,0,flight.bmp,threat.bmp
ds001894_sub-0003,ds001894,sub-003,ses-T1,task-VVWord,,run-02,86.288,4.4,3,O-P+,1.364,0,bluff.bmp,tough.bmp
ds001894_sub-0003,ds001894,sub-003,ses-T1,task-VVWord,,run-02,90.702,4.8,6,perceptual,1.483,0,i.bmp,r.bmp
ds001894_sub-0003,ds001894,sub-003,ses-T1,task-VVWord,,run-02,95.518,4.8,3,O-P+,1.406,1,halt.bmp,fault.bmp
ds001894_sub-0003,ds001894,sub-003,ses-T1,task-VVWord,,run-02,100.334,4.4,2,O+P-,1.082,0,dull.bmp,bull.bmp
ds001894_sub-0003,ds001894,sub-003,ses-T1,task-VVWord,,run-02,104.749,4,1,O+P+,0.813,1,brow.bmp,cow.bmp
ds001894_sub-0003,ds001894,sub-003,ses-T1,task-VVWord,,run-02,108.762,4.8,1,O+P+,0.918,1,goat.bmp,float.bmp
ds001894_sub-0003,ds001894,sub-003,ses-T1,task-VVWord,,run-02,113.578,4,1,O+P+,0.603,1,glide.bmp,bride.bmp
ds001894_sub-0003,ds001894,sub-003,ses-T1,task-VVWord,,run-02,117.592,4,5,control,1.558,1,blackcross.bmp,blackcross.bmp
ds001894_sub-0003,ds001894,sub-003,ses-T1,task-VVWord,,run-02,121.605,4,5,control,1.627,1,blackcross.bmp,blackcross.bmp
ds001894_sub-0003,ds001894,sub-003,ses-T1,task-VVWord,,run-02,125.618,4,5,control,1.667,1,blackcross.bmp,blackcross.bmp
ds001894_sub-0003,ds001894,sub-003,ses-T1,task-VVWord,,run-02,129.632,4.8,2,O+P-,2.264,0,plead.bmp,spread.bmp
ds001894_sub-0003,ds001894,sub-003,ses-T1,task-VVWord,,run-02,134.448,4.4,6,perceptual,1.521,1,t.bmp,u.bmp
ds001894_sub-0003,ds001894,sub-003,ses-T1,task-VVWord,,run-02,138.863,4.8,3,O-P+,1.659,1,roast.bmp,ghost.bmp
ds001894_sub-0003,ds001894,sub-003,ses-T1,task-VVWord,,run-02,143.679,4,6,perceptual,2.196,0,y.bmp,z.bmp
ds001894_sub-0003,ds001894,sub-003,ses-T1,task-VVWord,,run-02,147.692,4.8,5,control,2.169,1,blackcross.bmp,blackcross.bmp
ds001894_sub-0003,ds001894,sub-003,ses-T1,task-VVWord,,run-02,152.508,4.8,3,O-P+,1.612,1,odd.bmp,rod.bmp
ds001894_sub-0003,ds001894,sub-003,ses-T1,task-VVWord,,run-02,157.324,4.4,1,O+P+,1.53,1,spoon.bmp,noon.bmp
ds001894_sub-0003,ds001894,sub-003,ses-T1,task-VVWord,,run-02,161.739,4.8,5,control,2.112,1,blackcross.bmp,blackcross.bmp
ds001894_sub-0003,ds001894,sub-003,ses-T1,task-VVWord,,run-02,166.555,4.8,5,control,2.372,1,blackcross.bmp,blackcross.bmp
ds001894_sub-0003,ds001894,sub-003,ses-T1,task-VVWord,,run-02,171.371,4.8,5,control,1.818,1,blackcross.bmp,blackcross.bmp
ds001894_sub-0003,ds001894,sub-003,ses-T1,task-VVWord,,run-02,176.187,4,5,control,1.816,1,blackcross.bmp,blackcross.bmp
ds001894_sub-0003,ds001894,sub-003,ses-T1,task-VVWord,,run-02,180.2,4.8,5,control,2.26,1,blackcross.bmp,blackcross.bmp
ds001894_sub-0003,ds001894,sub-003,ses-T1,task-VVWord,,run-02,185.016,4,2,O+P-,1.61,0,breath.bmp,wreath.bmp
ds001894_sub-0003,ds001894,sub-003,ses-T1,task-VVWord,,run-02,189.029,4.4,1,O+P+,1.559,1,neat.bmp,wheat.bmp
ds001894_sub-0003,ds001894,sub-003,ses-T1,task-VVWord,,run-02,193.444,4,2,O+P-,2.005,1,mouth.bmp,youth.bmp
ds001894_sub-0003,ds001894,sub-003,ses-T1,task-VVWord,,run-02,197.458,4.8,1,O+P+,1.548,1,toss.bmp,moss.bmp
ds001894_sub-0003,ds001894,sub-003,ses-T1,task-VVWord,,run-02,202.274,4.8,5,control,1.921,1,blackcross.bmp,blackcross.bmp
ds001894_sub-0003,ds001894,sub-003,ses-T1,task-VVWord,,run-02,207.09,4.4,6,perceptual,2.041,0,g.bmp,h.bmp
ds001894_sub-0003,ds001894,sub-003,ses-T1,task-VVWord,,run-02,211.504,4.8,4,O-P-,1.641,1,rule.bmp,blur.bmp
ds001894_sub-0003,ds001894,sub-003,ses-T1,task-VVWord,,run-02,216.32,4,2,O+P-,1.518,0,tomb.bmp,comb.bmp
ds001894_sub-0003,ds001894,sub-003,ses-T1,task-VVWord,,run-02,220.334,4.8,6,perceptual,1.571,1,r.bmp,s.bmp
ds001894_sub-0003,ds001894,sub-003,ses-T1,task-VVWord,,run-02,225.15,4,4,O-P-,2.189,1,june.bmp,loop.bmp
ds001894_sub-0003,ds001894,sub-003,ses-T1,task-VVWord,,run-02,229.163,4.4,3,O-P+,1.848,1,warm.bmp,form.bmp
ds001894_sub-0003,ds001894,sub-003,ses-T1,task-VVWord,,run-02,233.578,4.4,4,O-P-,2.305,1,rum.bmp,touch.bmp
ds001894_sub-0003,ds001894,sub-003,ses-T1,task-VVWord,,run-02,237.992,4,2,O+P-,1.9,0,gross.bmp,moss.bmp
ds001894_sub-0003,ds001894,sub-003,ses-T1,task-VVWord,,run-02,242.006,4,4,O-P-,1.915,1,glow.bmp,stove.bmp
ds001894_sub-0003,ds001894,sub-003,ses-T1,task-VVWord,,run-02,246.019,4.8,5,control,2.159,1,blackcross.bmp,blackcross.bmp
ds001894_sub-0003,ds001894,sub-003,ses-T1,task-VVWord,,run-02,250.835,4.8,4,O-P-,2.248,1,wheel.bmp,sneak.bmp
ds001894_sub-0003,ds001894,sub-003,ses-T1,task-VVWord,,run-02,255.651,4,5,control,1.842,1,blackcross.bmp,blackcross.bmp
ds001894_sub-0003,ds001894,sub-003,ses-T1,task-VVWord,,run-02,259.665,4.4,2,O+P-,1.942,1,cow.bmp,glow.bmp
ds001894_sub-0003,ds001894,sub-003,ses-T1,task-VVWord,,run-02,264.079,4.4,1,O+P+,1.452,1,pile.bmp,mile.bmp
ds001894_sub-0003,ds001894,sub-003,ses-T1,task-VVWord,,run-02,268.494,4.8,3,O-P+,1.303,1,cheek.bmp,sneak.bmp
ds001894_sub-0003,ds001894,sub-003,ses-T1,task-VVWord,,run-02,273.31,4.4,4,O-P-,1.852,1,youth.bmp,hint.bmp
ds001894_sub-0003,ds001894,sub-003,ses-T1,task-VVWord,,run-02,277.725,4.4,5,control,1.884,1,blackcross.bmp,blackcross.bmp
ds001894_sub-0003,ds001894,sub-003,ses-T1,task-VVWord,,run-02,282.139,4,3,O-P+,1.528,1,thief.bmp,beef.bmp
ds001894_sub-0003,ds001894,sub-003,ses-T1,task-VVWord,,run-02,286.153,4.4,5,control,1.752,1,blackcross.bmp,blackcross.bmp
ds001894_sub-0003,ds001894,sub-003,ses-T1,task-VVWord,,run-02,290.567,4.8,2,O+P-,1.747,0,swarm.bmp,harm.bmp
ds001894_sub-0003,ds001894,sub-003,ses-T1,task-VVWord,,run-02,295.383,4,6,perceptual,1.849,1,l.bmp,d.bmp
ds001894_sub-0003,ds001894,sub-003,ses-T1,task-VVWord,,run-02,299.397,4.4,2,O+P-,1.207,0,both.bmp,cloth.bmp
ds001894_sub-0003,ds001894,sub-003,ses-T1,task-VVWord,,run-02,303.811,4.4,5,control,1.873,1,blackcross.bmp,blackcross.bmp
ds001894_sub-0003,ds001894,sub-003,ses-T1,task-VVWord,,run-02,308.226,4.8,4,O-P-,1.409,0,cream.bmp,swarm.bmp
ds001894_sub-0003,ds001894,sub-003,ses-T1,task-VVWord,,run-02,313.042,4.4,2,O+P-,1.777,0,ford.bmp,word.bmp
ds001894_sub-0003,ds001894,sub-003,ses-T1,task-VVWord,,run-02,317.457,4.4,1,O+P+,1.85,1,vase.bmp,chase.bmp
ds001894_sub-0003,ds001894,sub-003,ses-T1,task-VVWord,,run-02,321.872,4,6,perceptual,1.795,1,f.bmp,n.bmp
ds001894_sub-0003,ds001894,sub-003,ses-T1,task-VVWord,,run-02,325.885,4.8,1,O+P+,1.569,1,flood.bmp,blood.bmp
ds001894_sub-0003,ds001894,sub-003,ses-T1,task-VVWord,,run-02,330.701,4,3,O-P+,1.813,1,quart.bmp,port.bmp
ds001894_sub-0003,ds001894,sub-003,ses-T1,task-VVWord,,run-02,334.714,4.4,5,control,2.016,1,blackcross.bmp,blackcross.bmp
ds001894_sub-0003,ds001894,sub-003,ses-T1,task-VVWord,,run-02,339.129,4,2,O+P-,2.387,1,swap.bmp,gap.bmp
ds001894_sub-0003,ds001894,sub-003,ses-T1,task-VVWord,,run-02,343.142,4,1,O+P+,1.705,1,frost.bmp,cost.bmp
ds001894_sub-0003,ds001894,sub-003,ses-T1,task-VVWord,,run-02,347.156,4.8,5,control,1.907,1,blackcross.bmp,blackcross.bmp
ds001894_sub-0003,ds001894,sub-003,ses-T1,task-VVWord,,run-02,351.972,4.4,5,control,1.871,1,blackcross.bmp,blackcross.bmp
ds001894_sub-0003,ds001894,sub-003,ses-T1,task-VVWord,,run-02,356.386,4.8,1,O+P+,1.483,1,harm.bmp,farm.bmp
ds001894_sub-0003,ds001894,sub-003,ses-T1,task-VVWord,,run-02,361.202,4.8,2,O+P-,2.312,1,scratch.bmp,watch.bmp
ds001894_sub-0003,ds001894,sub-003,ses-T1,task-VVWord,,run-02,366.018,5.2,5,control,1.823,1,blackcross.bmp,blackcross.bmp
ds001894_sub-0004,ds001894,sub-004,ses-T1,task-VVWord,,run-01,0,4,2,O+P-,1.893,1,post.bmp,cost.bmp
ds001894_sub-0004,ds001894,sub-004,ses-T1,task-VVWord,,run-01,4.008,4,5,control,1.721,1,blackcross.bmp,blackcross.bmp
ds001894_sub-0004,ds001894,sub-004,ses-T1,task-VVWord,,run-01,8.01599999999999,4.4,6,perceptual,1.457,1,o.bmp,p.bmp
ds001894_sub-0004,ds001894,sub-004,ses-T1,task-VVWord,,run-01,12.425,4,3,O-P+,1.503,1,rum.bmp,numb.bmp
ds001894_sub-0004,ds001894,sub-004,ses-T1,task-VVWord,,run-01,16.433,4.8,5,control,1.732,1,blackcross.bmp,blackcross.bmp
ds001894_sub-0004,ds001894,sub-004,ses-T1,task-VVWord,,run-01,21.243,4,6,perceptual,1.358,1,c.bmp,u.bmp
ds001894_sub-0004,ds001894,sub-004,ses-T1,task-VVWord,,run-01,25.25,4,1,O+P+,1.498,1,fought.bmp,sought.bmp
ds001894_sub-0004,ds001894,sub-004,ses-T1,task-VVWord,,run-01,29.258,4,1,O+P+,1.143,1,scheme.bmp,theme.bmp
ds001894_sub-0004,ds001894,sub-004,ses-T1,task-VVWord,,run-01,33.266,4,6,perceptual,1.725,1,m.bmp,n.bmp
ds001894_sub-0004,ds001894,sub-004,ses-T1,task-VVWord,,run-01,37.274,4.4,1,O+P+,1.246,1,stool.bmp,fool.bmp
ds001894_sub-0004,ds001894,sub-004,ses-T1,task-VVWord,,run-01,41.683,4.4,5,control,1.582,1,blackcross.bmp,blackcross.bmp
ds001894_sub-0004,ds001894,sub-004,ses-T1,task-VVWord,,run-01,46.092,4.4,1,O+P+,1.124,1,soak.bmp,oak.bmp
ds001894_sub-0004,ds001894,sub-004,ses-T1,task-VVWord,,run-01,50.5,4.4,2,O+P-,1.468,1,threat.bmp,wheat.bmp
ds001894_sub-0004,ds001894,sub-004,ses-T1,task-VVWord,,run-01,54.909,4,1,O+P+,1.356,1,thread.bmp,spread.bmp
ds001894_sub-0004,ds001894,sub-004,ses-T1,task-VVWord,,run-01,58.917,4.4,3,O-P+,1.26,1,pile.bmp,trial.bmp
ds001894_sub-0004,ds001894,sub-004,ses-T1,task-VVWord,,run-01,63.326,4.8,4,O-P-,1.521,1,swap.bmp,watch.bmp
ds001894_sub-0004,ds001894,sub-004,ses-T1,task-VVWord,,run-01,68.135,4.8,5,control,1.775,1,blackcross.bmp,blackcross.bmp
ds001894_sub-0004,ds001894,sub-004,ses-T1,task-VVWord,,run-01,72.945,4.4,5,control,1.627,1,blackcross.bmp,blackcross.bmp
ds001894_sub-0004,ds001894,sub-004,ses-T1,task-VVWord,,run-01,77.354,4.4,4,O-P-,1.181,1,tough.bmp,dull.bmp
ds001894_sub-0004,ds001894,sub-004,ses-T1,task-VVWord,,run-01,81.762,4.8,6,perceptual,1.297,1,w.bmp,e.bmp
ds001894_sub-0004,ds001894,sub-004,ses-T1,task-VVWord,,run-01,86.572,4.8,1,O+P+,1.244,1,sweep.bmp,creep.bmp
ds001894_sub-0004,ds001894,sub-004,ses-T1,task-VVWord,,run-01,91.381,4.8,6,perceptual,1.41,1,k.bmp,t.bmp
ds001894_sub-0004,ds001894,sub-004,ses-T1,task-VVWord,,run-01,96.191,4.4,5,control,1.451,1,blackcross.bmp,blackcross.bmp
ds001894_sub-0004,ds001894,sub-004,ses-T1,task-VVWord,,run-01,100.6,4.4,3,O-P+,1.056,1,stroke.bmp,soak.bmp
ds001894_sub-0004,ds001894,sub-004,ses-T1,task-VVWord,,run-01,105.008,4.4,4,O-P-,1.19,1,trial.bmp,fall.bmp
ds001894_sub-0004,ds001894,sub-004,ses-T1,task-VVWord,,run-01,109.417,4.8,6,perceptual,1.687,1,k.bmp,l.bmp
ds001894_sub-0004,ds001894,sub-004,ses-T1,task-VVWord,,run-01,114.227,4,5,control,1.493,1,blackcross.bmp,blackcross.bmp
ds001894_sub-0004,ds001894,sub-004,ses-T1,task-VVWord,,run-01,118.235,4.4,5,control,1.591,1,blackcross.bmp,blackcross.bmp
ds001894_sub-0004,ds001894,sub-004,ses-T1,task-VVWord,,run-01,122.643,4.4,5,control,1.416,1,blackcross.bmp,blackcross.bmp
ds001894_sub-0004,ds001894,sub-004,ses-T1,task-VVWord,,run-01,127.052,4.4,5,control,1.664,1,blackcross.bmp,blackcross.bmp
ds001894_sub-0004,ds001894,sub-004,ses-T1,task-VVWord,,run-01,131.461,4,1,O+P+,1.056,1,beef.bmp,reef.bmp
ds001894_sub-0004,ds001894,sub-004,ses-T1,task-VVWord,,run-01,135.469,4,5,control,1.817,1,blackcross.bmp,blackcross.bmp
ds001894_sub-0004,ds001894,sub-004,ses-T1,task-VVWord,,run-01,139.477,4.8,2,O+P-,1.622,1,wart.bmp,smart.bmp
ds001894_sub-0004,ds001894,sub-004,ses-T1,task-VVWord,,run-01,144.286,4.8,2,O+P-,2.114,0,dose.bmp,pose.bmp
ds001894_sub-0004,ds001894,sub-004,ses-T1,task-VVWord,,run-01,149.096,4.4,5,control,1.395,1,blackcross.bmp,blackcross.bmp
ds001894_sub-0004,ds001894,sub-004,ses-T1,task-VVWord,,run-01,153.504,4,2,O+P-,1.065,1,touch.bmp,couch.bmp
ds001894_sub-0004,ds001894,sub-004,ses-T1,task-VVWord,,run-01,157.512,4,6,perceptual,1.069,1,v.bmp,m.bmp
ds001894_sub-0004,ds001894,sub-004,ses-T1,task-VVWord,,run-01,161.52,4.8,5,control,1.376,1,blackcross.bmp,blackcross.bmp
ds001894_sub-0004,ds001894,sub-004,ses-T1,task-VVWord,,run-01,166.33,4.8,5,control,1.518,1,blackcross.bmp,blackcross.bmp
ds001894_sub-0004,ds001894,sub-004,ses-T1,task-VVWord,,run-01,171.139,4.4,5,control,1.58,1,blackcross.bmp,blackcross.bmp
ds001894_sub-0004,ds001894,sub-004,ses-T1,task-VVWord,,run-01,175.548,4,5,control,1.58,1,blackcross.bmp,blackcross.bmp
ds001894_sub-0004,ds001894,sub-004,ses-T1,task-VVWord,,run-01,179.556,4.8,5,control,1.585,1,blackcross.bmp,blackcross.bmp
ds001894_sub-0004,ds001894,sub-004,ses-T1,task-VVWord,,run-01,184.365,4.4,4,O-P-,1.849,1,port.bmp,warm.bmp
ds001894_sub-0004,ds001894,sub-004,ses-T1,task-VVWord,,run-01,188.774,4.8,3,O-P+,1.269,1,june.bmp,noon.bmp
ds001894_sub-0004,ds001894,sub-004,ses-T1,task-VVWord,,run-01,193.584,4.4,4,O-P-,1.383,1,wreath.bmp,leap.bmp
ds001894_sub-0004,ds001894,sub-004,ses-T1,task-VVWord,,run-01,197.992,4,5,control,1.622,1,blackcross.bmp,blackcross.bmp
ds001894_sub-0004,ds001894,sub-004,ses-T1,task-VVWord,,run-01,202,4.4,6,perceptual,1.158,1,c.bmp,d.bmp
ds001894_sub-0004,ds001894,sub-004,ses-T1,task-VVWord,,run-01,206.409,4.4,2,O+P-,1.545,1,glove.bmp,stove.bmp
ds001894_sub-0004,ds001894,sub-004,ses-T1,task-VVWord,,run-01,210.818,4.8,1,O+P+,1.262,1,numb.bmp,crumb.bmp
ds001894_sub-0004,ds001894,sub-004,ses-T1,task-VVWord,,run-01,215.627,4.8,2,O+P-,1.811,1,stood.bmp,flood.bmp
ds001894_sub-0004,ds001894,sub-004,ses-T1,task-VVWord,,run-01,220.437,4.4,6,perceptual,1.157,1,i.bmp,j.bmp
ds001894_sub-0004,ds001894,sub-004,ses-T1,task-VVWord,,run-01,224.846,4.8,4,O-P-,1.853,1,smart.bmp,drought.bmp
ds001894_sub-0004,ds001894,sub-004,ses-T1,task-VVWord,,run-01,229.655,4.4,3,O-P+,1.403,1,stir.bmp,blur.bmp
ds001894_sub-0004,ds001894,sub-004,ses-T1,task-VVWord,,run-01,234.064,4.4,5,control,1.693,1,blackcross.bmp,blackcross.bmp
ds001894_sub-0004,ds001894,sub-004,ses-T1,task-VVWord,,run-01,238.473,4.8,5,control,1.64,1,blackcross.bmp,blackcross.bmp
ds001894_sub-0004,ds001894,sub-004,ses-T1,task-VVWord,,run-01,243.282,4.8,2,O+P-,1.988,1,pool.bmp,wool.bmp
ds001894_sub-0004,ds001894,sub-004,ses-T1,task-VVWord,,run-01,248.092,4,5,control,2.136,1,blackcross.bmp,blackcross.bmp
ds001894_sub-0004,ds001894,sub-004,ses-T1,task-VVWord,,run-01,252.1,4.4,5,control,1.47,1,blackcross.bmp,blackcross.bmp
ds001894_sub-0004,ds001894,sub-004,ses-T1,task-VVWord,,run-01,256.508,4.4,2,O+P-,2.884,1,fought.bmp,drought.bmp
ds001894_sub-0004,ds001894,sub-004,ses-T1,task-VVWord,,run-01,260.917,4,3,O-P+,2.101,1,flight.bmp,spite.bmp
ds001894_sub-0004,ds001894,sub-004,ses-T1,task-VVWord,,run-01,264.925,4.4,3,O-P+,1.216,1,scheme.bmp,cream.bmp
ds001894_sub-0004,ds001894,sub-004,ses-T1,task-VVWord,,run-01,269.334,4,6,perceptual,1.507,1,z.bmp,g.bmp
ds001894_sub-0004,ds001894,sub-004,ses-T1,task-VVWord,,run-01,273.342,4.8,4,O-P-,1.788,1,ghost.bmp,pose.bmp
ds001894_sub-0004,ds001894,sub-004,ses-T1,task-VVWord,,run-01,278.151,4.4,5,control,1.979,1,blackcross.bmp,blackcross.bmp
ds001894_sub-0004,ds001894,sub-004,ses-T1,task-VVWord,,run-01,282.56,4,4,O-P-,1.611,1,grace.bmp,fence.bmp
ds001894_sub-0004,ds001894,sub-004,ses-T1,task-VVWord,,run-01,286.568,4,4,O-P-,2.239,1,dried.bmp,stood.bmp
ds001894_sub-0004,ds001894,sub-004,ses-T1,task-VVWord,,run-01,290.576,4,4,O-P-,1.589,1,ford.bmp,rod.bmp
ds001894_sub-0004,ds001894,sub-004,ses-T1,task-VVWord,,run-01,294.584,4.4,1,O+P+,1.411,1,strap.bmp,gap.bmp
ds001894_sub-0004,ds001894,sub-004,ses-T1,task-VVWord,,run-01,298.992,4.8,6,perceptual,1.267,1,e.bmp,f.bmp
ds001894_sub-0004,ds001894,sub-004,ses-T1,task-VVWord,,run-01,303.802,4,5,control,1.592,1,blackcross.bmp,blackcross.bmp
ds001894_sub-0004,ds001894,sub-004,ses-T1,task-VVWord,,run-01,307.81,4,4,O-P-,1.562,1,gross.bmp,post.bmp
ds001894_sub-0004,ds001894,sub-004,ses-T1,task-VVWord,,run-01,311.818,4,4,O-P-,1.882,1,fault.bmp,note.bmp
ds001894_sub-0004,ds001894,sub-004,ses-T1,task-VVWord,,run-01,315.826,4.8,1,O+P+,1.245,1,bull.bmp,full.bmp
ds001894_sub-0004,ds001894,sub-004,ses-T1,task-VVWord,,run-01,320.635,4.8,3,O-P+,1.14,1,chase.bmp,grace.bmp
ds001894_sub-0004,ds001894,sub-004,ses-T1,task-VVWord,,run-01,325.445,4,3,O-P+,1.594,1,float.bmp,note.bmp
ds001894_sub-0004,ds001894,sub-004,ses-T1,task-VVWord,,run-01,329.453,4.8,3,O-P+,1.163,1,bride.bmp,dried.bmp
ds001894_sub-0004,ds001894,sub-004,ses-T1,task-VVWord,,run-01,334.262,4.8,4,O-P-,1.531,1,thief.bmp,plead.bmp
ds001894_sub-0004,ds001894,sub-004,ses-T1,task-VVWord,,run-01,339.072,4.4,1,O+P+,2.437,0,bluff.bmp,puff.bmp
ds001894_sub-0004,ds001894,sub-004,ses-T1,task-VVWord,,run-01,343.48,4.8,6,perceptual,1.377,1,v.bmp,w.bmp
ds001894_sub-0004,ds001894,sub-004,ses-T1,task-VVWord,,run-01,348.29,4.8,1,O+P+,1.399,1,shove.bmp,glove.bmp
ds001894_sub-0004,ds001894,sub-004,ses-T1,task-VVWord,,run-01,353.099,4.4,6,perceptual,1.573,1,y.bmp,o.bmp
ds001894_sub-0004,ds001894,sub-004,ses-T1,task-VVWord,,run-01,357.508,4.8,2,O+P-,1.471,1,stamp.bmp,swamp.bmp
ds001894_sub-0004,ds001894,sub-004,ses-T1,task-VVWord,,run-01,362.318,4.4,4,O-P-,1.527,1,stamp.bmp,tomb.bmp
ds001894_sub-0004,ds001894,sub-004,ses-T1,task-VVWord,,run-01,366.726,4,5,control,1.554,1,blackcross.bmp,blackcross.bmp
ds001894_sub-0004,ds001894,sub-004,ses-T1,task-VVWord,,run-02,0,4.8,6,perceptual,1.52,1,a.bmp,s.bmp
ds001894_sub-0004,ds001894,sub-004,ses-T1,task-VVWord,,run-02,4.809,4.8,3,O-P+,1.278,1,fall.bmp,crawl.bmp
ds001894_sub-0004,ds001894,sub-004,ses-T1,task-VVWord,,run-02,9.619,4.4,3,O-P+,1.153,1,leap.bmp,sweep.bmp
ds001894_sub-0004,ds001894,sub-004,ses-T1,task-VVWord,,run-02,14.028,4,3,O-P+,1.258,1,tense.bmp,fence.bmp
ds001894_sub-0004,ds001894,sub-004,ses-T1,task-VVWord,,run-02,18.036,4,3,O-P+,1.412,1,soup.bmp,loop.bmp
ds001894_sub-0004,ds001894,sub-004,ses-T1,task-VVWord,,run-02,22.044,4.4,6,perceptual,1.989,1,j.bmp,b.bmp
ds001894_sub-0004,ds001894,sub-004,ses-T1,task-VVWord,,run-02,26.452,4,6,perceptual,1.438,1,h.bmp,p.bmp
ds001894_sub-0004,ds001894,sub-004,ses-T1,task-VVWord,,run-02,30.46,4,4,O-P-,1.57,1,pool.bmp,tooth.bmp
ds001894_sub-0004,ds001894,sub-004,ses-T1,task-VVWord,,run-02,34.468,4.8,4,O-P-,1.817,1,both.bmp,stroke.bmp
ds001894_sub-0004,ds001894,sub-004,ses-T1,task-VVWord,,run-02,39.278,4,1,O+P+,1.794,1,quart.bmp,wart.bmp
ds001894_sub-0004,ds001894,sub-004,ses-T1,task-VVWord,,run-02,43.286,4.8,5,control,1.551,1,blackcross.bmp,blackcross.bmp
ds001894_sub-0004,ds001894,sub-004,ses-T1,task-VVWord,,run-02,48.095,4.4,6,perceptual,1.605,1,a.bmp,b.bmp
ds001894_sub-0004,ds001894,sub-004,ses-T1,task-VVWord,,run-02,52.504,4.4,2,O+P-,1.826,1,pint.bmp,hint.bmp
ds001894_sub-0004,ds001894,sub-004,ses-T1,task-VVWord,,run-02,56.913,4.4,3,O-P+,1.056,1,wheel.bmp,deal.bmp
ds001894_sub-0004,ds001894,sub-004,ses-T1,task-VVWord,,run-02,61.321,4,2,O+P-,1.776,1,smooth.bmp,tooth.bmp
ds001894_sub-0004,ds001894,sub-004,ses-T1,task-VVWord,,run-02,65.329,4,3,O-P+,1.393,1,stool.bmp,rule.bmp
ds001894_sub-0004,ds001894,sub-004,ses-T1,task-VVWord,,run-02,69.337,4,5,control,1.514,1,blackcross.bmp,blackcross.bmp
ds001894_sub-0004,ds001894,sub-004,ses-T1,task-VVWord,,run-02,73.345,4,5,control,1.485,1,blackcross.bmp,blackcross.bmp
ds001894_sub-0004,ds001894,sub-004,ses-T1,task-VVWord,,run-02,77.353,4.4,5,control,1.498,1,blackcross.bmp,blackcross.bmp
ds001894_sub-0004,ds001894,sub-004,ses-T1,task-VVWord,,run-02,81.762,4.4,4,O-P-,1.256,1,flight.bmp,threat.bmp
ds001894_sub-0004,ds001894,sub-004,ses-T1,task-VVWord,,run-02,86.17,4.4,3,O-P+,1.298,1,bluff.bmp,tough.bmp
ds001894_sub-0004,ds001894,sub-004,ses-T1,task-VVWord,,run-02,90.579,4.8,6,perceptual,1.501,1,i.bmp,r.bmp
ds001894_sub-0004,ds001894,sub-004,ses-T1,task-VVWord,,run-02,95.389,4.8,3,O-P+,1.079,1,halt.bmp,fault.bmp
ds001894_sub-0004,ds001894,sub-004,ses-T1,task-VVWord,,run-02,100.198,4.4,2,O+P-,1.747,1,dull.bmp,bull.bmp
ds001894_sub-0004,ds001894,sub-004,ses-T1,task-VVWord,,run-02,104.607,4,1,O+P+,1.269,1,brow.bmp,cow.bmp
ds001894_sub-0004,ds001894,sub-004,ses-T1,task-VVWord,,run-02,108.615,4.8,1,O+P+,1.409,1,goat.bmp,float.bmp
ds001894_sub-0004,ds001894,sub-004,ses-T1,task-VVWord,,run-02,113.424,4,1,O+P+,1.312,1,glide.bmp,bride.bmp
ds001894_sub-0004,ds001894,sub-004,ses-T1,task-VVWord,,run-02,117.432,4,5,control,1.526,1,blackcross.bmp,blackcross.bmp
ds001894_sub-0004,ds001894,sub-004,ses-T1,task-VVWord,,run-02,121.44,4,5,control,1.578,1,blackcross.bmp,blackcross.bmp
ds001894_sub-0004,ds001894,sub-004,ses-T1,task-VVWord,,run-02,125.448,4,5,control,1.575,1,blackcross.bmp,blackcross.bmp
ds001894_sub-0004,ds001894,sub-004,ses-T1,task-VVWord,,run-02,129.456,4.8,2,O+P-,1.643,1,plead.bmp,spread.bmp
ds001894_sub-0004,ds001894,sub-004,ses-T1,task-VVWord,,run-02,134.266,4.4,6,perceptual,1.659,0,t.bmp,u.bmp
ds001894_sub-0004,ds001894,sub-004,ses-T1,task-VVWord,,run-02,138.674,4.8,3,O-P+,1.155,1,roast.bmp,ghost.bmp
ds001894_sub-0004,ds001894,sub-004,ses-T1,task-VVWord,,run-02,143.484,4,6,perceptual,1.432,1,y.bmp,z.bmp
ds001894_sub-0004,ds001894,sub-004,ses-T1,task-VVWord,,run-02,147.492,4.8,5,control,1.41,1,blackcross.bmp,blackcross.bmp
ds001894_sub-0004,ds001894,sub-004,ses-T1,task-VVWord,,run-02,152.301,4.8,3,O-P+,1.036,1,odd.bmp,rod.bmp
ds001894_sub-0004,ds001894,sub-004,ses-T1,task-VVWord,,run-02,157.111,4.4,1,O+P+,1.164,1,spoon.bmp,noon.bmp
ds001894_sub-0004,ds001894,sub-004,ses-T1,task-VVWord,,run-02,161.52,4.8,5,control,1.585,1,blackcross.bmp,blackcross.bmp
ds001894_sub-0004,ds001894,sub-004,ses-T1,task-VVWord,,run-02,166.329,4.8,5,control,1.527,1,blackcross.bmp,blackcross.bmp
ds001894_sub-0004,ds001894,sub-004,ses-T1,task-VVWord,,run-02,171.139,4.8,5,control,1.435,1,blackcross.bmp,blackcross.bmp
ds001894_sub-0004,ds001894,sub-004,ses-T1,task-VVWord,,run-02,175.948,4,5,control,1.596,1,blackcross.bmp,blackcross.bmp
ds001894_sub-0004,ds001894,sub-004,ses-T1,task-VVWord,,run-02,179.956,4.8,5,control,1.699,1,blackcross.bmp,blackcross.bmp
ds001894_sub-0004,ds001894,sub-004,ses-T1,task-VVWord,,run-02,184.766,4,2,O+P-,1.818,1,breath.bmp,wreath.bmp
ds001894_sub-0004,ds001894,sub-004,ses-T1,task-VVWord,,run-02,188.774,4.4,1,O+P+,1.035,1,neat.bmp,wheat.bmp
ds001894_sub-0004,ds001894,sub-004,ses-T1,task-VVWord,,run-02,193.182,4,2,O+P-,2.344,1,mouth.bmp,youth.bmp
ds001894_sub-0004,ds001894,sub-004,ses-T1,task-VVWord,,run-02,197.19,4.8,1,O+P+,1.044,1,toss.bmp,moss.bmp
ds001894_sub-0004,ds001894,sub-004,ses-T1,task-VVWord,,run-02,202,4.8,5,control,1.708,1,blackcross.bmp,blackcross.bmp
ds001894_sub-0004,ds001894,sub-004,ses-T1,task-VVWord,,run-02,206.809,4.4,6,perceptual,1.461,1,g.bmp,h.bmp
ds001894_sub-0004,ds001894,sub-004,ses-T1,task-VVWord,,run-02,211.218,4.8,4,O-P-,1.639,1,rule.bmp,blur.bmp
ds001894_sub-0004,ds001894,sub-004,ses-T1,task-VVWord,,run-02,216.028,4,2,O+P-,1.355,1,tomb.bmp,comb.bmp
ds001894_sub-0004,ds001894,sub-004,ses-T1,task-VVWord,,run-02,220.035,4.8,6,perceptual,1.102,1,r.bmp,s.bmp
ds001894_sub-0004,ds001894,sub-004,ses-T1,task-VVWord,,run-02,224.845,4,4,O-P-,2.538,0,june.bmp,loop.bmp
ds001894_sub-0004,ds001894,sub-004,ses-T1,task-VVWord,,run-02,228.853,4.4,3,O-P+,1.151,1,warm.bmp,form.bmp
ds001894_sub-0004,ds001894,sub-004,ses-T1,task-VVWord,,run-02,233.262,4.4,4,O-P-,1.287,1,rum.bmp,touch.bmp
ds001894_sub-0004,ds001894,sub-004,ses-T1,task-VVWord,,run-02,237.67,4,2,O+P-,1.426,1,gross.bmp,moss.bmp
ds001894_sub-0004,ds001894,sub-004,ses-T1,task-VVWord,,run-02,241.678,4,4,O-P-,1.475,1,glow.bmp,stove.bmp
ds001894_sub-0004,ds001894,sub-004,ses-T1,task-VVWord,,run-02,245.686,4.8,5,control,1.796,1,blackcross.bmp,blackcross.bmp
ds001894_sub-0004,ds001894,sub-004,ses-T1,task-VVWord,,run-02,250.496,4.8,4,O-P-,1.08,1,wheel.bmp,sneak.bmp
ds001894_sub-0004,ds001894,sub-004,ses-T1,task-VVWord,,run-02,255.305,4,5,control,1.587,1,blackcross.bmp,blackcross.bmp
ds001894_sub-0004,ds001894,sub-004,ses-T1,task-VVWord,,run-02,259.313,4.4,2,O+P-,1.259,1,cow.bmp,glow.bmp
ds001894_sub-0004,ds001894,sub-004,ses-T1,task-VVWord,,run-02,263.722,4.4,1,O+P+,1.091,1,pile.bmp,mile.bmp
ds001894_sub-0004,ds001894,sub-004,ses-T1,task-VVWord,,run-02,268.131,4.8,3,O-P+,1.375,1,cheek.bmp,sneak.bmp
ds001894_sub-0004,ds001894,sub-004,ses-T1,task-VVWord,,run-02,272.94,4.4,4,O-P-,1.316,1,youth.bmp,hint.bmp
ds001894_sub-0004,ds001894,sub-004,ses-T1,task-VVWord,,run-02,277.349,4.4,5,control,1.405,1,blackcross.bmp,blackcross.bmp
ds001894_sub-0004,ds001894,sub-004,ses-T1,task-VVWord,,run-02,281.758,4,3,O-P+,1.356,1,thief.bmp,beef.bmp
ds001894_sub-0004,ds001894,sub-004,ses-T1,task-VVWord,,run-02,285.766,4.4,5,control,1.606,1,blackcross.bmp,blackcross.bmp
ds001894_sub-0004,ds001894,sub-004,ses-T1,task-VVWord,,run-02,290.174,4.8,2,O+P-,2.216,1,swarm.bmp,harm.bmp
ds001894_sub-0004,ds001894,sub-004,ses-T1,task-VVWord,,run-02,294.984,4,6,perceptual,1.4,1,l.bmp,d.bmp
ds001894_sub-0004,ds001894,sub-004,ses-T1,task-VVWord,,run-02,298.992,4.4,2,O+P-,1.289,1,both.bmp,cloth.bmp
ds001894_sub-0004,ds001894,sub-004,ses-T1,task-VVWord,,run-02,303.401,4.4,5,control,1.574,1,blackcross.bmp,blackcross.bmp
ds001894_sub-0004,ds001894,sub-004,ses-T1,task-VVWord,,run-02,307.809,4.8,4,O-P-,1.327,1,cream.bmp,swarm.bmp
ds001894_sub-0004,ds001894,sub-004,ses-T1,task-VVWord,,run-02,312.619,4.4,2,O+P-,1.58,1,ford.bmp,word.bmp
ds001894_sub-0004,ds001894,sub-004,ses-T1,task-VVWord,,run-02,317.027,4.4,1,O+P+,1.293,1,vase.bmp,chase.bmp
ds001894_sub-0004,ds001894,sub-004,ses-T1,task-VVWord,,run-02,321.436,4,6,perceptual,1.196,1,f.bmp,n.bmp
ds001894_sub-0004,ds001894,sub-004,ses-T1,task-VVWord,,run-02,325.444,4.8,1,O+P+,1.115,1,flood.bmp,blood.bmp
ds001894_sub-0004,ds001894,sub-004,ses-T1,task-VVWord,,run-02,330.254,4,3,O-P+,1.101,1,quart.bmp,port.bmp
ds001894_sub-0004,ds001894,sub-004,ses-T1,task-VVWord,,run-02,334.262,4.4,5,control,1.461,1,blackcross.bmp,blackcross.bmp
ds001894_sub-0004,ds001894,sub-004,ses-T1,task-VVWord,,run-02,338.67,4,2,O+P-,1.105,1,swap.bmp,gap.bmp
ds001894_sub-0004,ds001894,sub-004,ses-T1,task-VVWord,,run-02,342.678,4,1,O+P+,1.002,1,frost.bmp,cost.bmp
ds001894_sub-0004,ds001894,sub-004,ses-T1,task-VVWord,,run-02,346.686,4.8,5,control,1.633,1,blackcross.bmp,blackcross.bmp
ds001894_sub-0004,ds001894,sub-004,ses-T1,task-VVWord,,run-02,351.496,4.4,5,control,1.556,1,blackcross.bmp,blackcross.bmp
ds001894_sub-0004,ds001894,sub-004,ses-T1,task-VVWord,,run-02,355.904,4.8,1,O+P+,1.17,1,harm.bmp,farm.bmp
ds001894_sub-0004,ds001894,sub-004,ses-T1,task-VVWord,,run-02,360.714,4.8,2,O+P-,1.453,1,scratch.bmp,watch.bmp
ds001894_sub-0004,ds001894,sub-004,ses-T1,task-VVWord,,run-02,365.524,5.2,5,control,1.495,1,blackcross.bmp,blackcross.bmp
ds001894_sub-0005,ds001894,sub-005,ses-T1,task-VVWord,,run-01,0,4,2,O+P-,1.828,1,post.bmp,cost.bmp
ds001894_sub-0005,ds001894,sub-005,ses-T1,task-VVWord,,run-01,4.008,4,5,control,1.575,1,blackcross.bmp,blackcross.bmp
ds001894_sub-0005,ds001894,sub-005,ses-T1,task-VVWord,,run-01,8.01599999999999,4.4,6,perceptual,1.354,1,o.bmp,p.bmp
ds001894_sub-0005,ds001894,sub-005,ses-T1,task-VVWord,,run-01,12.424,4,3,O-P+,1.521,1,rum.bmp,numb.bmp
ds001894_sub-0005,ds001894,sub-005,ses-T1,task-VVWord,,run-01,16.432,4.8,5,control,1.699,1,blackcross.bmp,blackcross.bmp
ds001894_sub-0005,ds001894,sub-005,ses-T1,task-VVWord,,run-01,21.242,4,6,perceptual,1.79,1,c.bmp,u.bmp
ds001894_sub-0005,ds001894,sub-005,ses-T1,task-VVWord,,run-01,25.25,4,1,O+P+,1.489,1,fought.bmp,sought.bmp
ds001894_sub-0005,ds001894,sub-005,ses-T1,task-VVWord,,run-01,29.258,4,1,O+P+,1.705,1,scheme.bmp,theme.bmp
ds001894_sub-0005,ds001894,sub-005,ses-T1,task-VVWord,,run-01,33.265,4,6,perceptual,1.589,1,m.bmp,n.bmp
ds001894_sub-0005,ds001894,sub-005,ses-T1,task-VVWord,,run-01,37.273,4.4,1,O+P+,1.475,1,stool.bmp,fool.bmp
ds001894_sub-0005,ds001894,sub-005,ses-T1,task-VVWord,,run-01,41.682,4.4,5,control,1.509,1,blackcross.bmp,blackcross.bmp
ds001894_sub-0005,ds001894,sub-005,ses-T1,task-VVWord,,run-01,46.091,4.4,1,O+P+,1.563,1,soak.bmp,oak.bmp
ds001894_sub-0005,ds001894,sub-005,ses-T1,task-VVWord,,run-01,50.5,4.4,2,O+P-,1.572,1,threat.bmp,wheat.bmp
ds001894_sub-0005,ds001894,sub-005,ses-T1,task-VVWord,,run-01,54.908,4,1,O+P+,1.519,1,thread.bmp,spread.bmp
ds001894_sub-0005,ds001894,sub-005,ses-T1,task-VVWord,,run-01,58.916,4.4,3,O-P+,1.794,1,pile.bmp,trial.bmp
ds001894_sub-0005,ds001894,sub-005,ses-T1,task-VVWord,,run-01,63.325,4.8,4,O-P-,1.633,1,swap.bmp,watch.bmp
ds001894_sub-0005,ds001894,sub-005,ses-T1,task-VVWord,,run-01,68.135,4.8,5,control,1.356,1,blackcross.bmp,blackcross.bmp
ds001894_sub-0005,ds001894,sub-005,ses-T1,task-VVWord,,run-01,72.944,4.4,5,control,1.729,1,blackcross.bmp,blackcross.bmp
ds001894_sub-0005,ds001894,sub-005,ses-T1,task-VVWord,,run-01,77.353,4.4,4,O-P-,1.469,1,tough.bmp,dull.bmp
ds001894_sub-0005,ds001894,sub-005,ses-T1,task-VVWord,,run-01,81.761,4.8,6,perceptual,1.879,1,w.bmp,e.bmp
ds001894_sub-0005,ds001894,sub-005,ses-T1,task-VVWord,,run-01,86.571,4.8,1,O+P+,1.441,1,sweep.bmp,creep.bmp
ds001894_sub-0005,ds001894,sub-005,ses-T1,task-VVWord,,run-01,91.381,4.8,6,perceptual,1.476,1,k.bmp,t.bmp
ds001894_sub-0005,ds001894,sub-005,ses-T1,task-VVWord,,run-01,96.19,4.4,5,control,1.272,1,blackcross.bmp,blackcross.bmp
ds001894_sub-0005,ds001894,sub-005,ses-T1,task-VVWord,,run-01,100.599,4.4,3,O-P+,1.447,1,stroke.bmp,soak.bmp
ds001894_sub-0005,ds001894,sub-005,ses-T1,task-VVWord,,run-01,105.008,4.4,4,O-P-,1.726,1,trial.bmp,fall.bmp
ds001894_sub-0005,ds001894,sub-005,ses-T1,task-VVWord,,run-01,109.416,4.8,6,perceptual,1.412,1,k.bmp,l.bmp
ds001894_sub-0005,ds001894,sub-005,ses-T1,task-VVWord,,run-01,114.226,4,5,control,1.564,1,blackcross.bmp,blackcross.bmp
ds001894_sub-0005,ds001894,sub-005,ses-T1,task-VVWord,,run-01,118.234,4.4,5,control,1.479,1,blackcross.bmp,blackcross.bmp
ds001894_sub-0005,ds001894,sub-005,ses-T1,task-VVWord,,run-01,122.642,4.4,5,control,1.659,1,blackcross.bmp,blackcross.bmp
ds001894_sub-0005,ds001894,sub-005,ses-T1,task-VVWord,,run-01,127.051,4.4,5,control,2.083,1,blackcross.bmp,blackcross.bmp
ds001894_sub-0005,ds001894,sub-005,ses-T1,task-VVWord,,run-01,131.46,4,1,O+P+,1.313,1,beef.bmp,reef.bmp
ds001894_sub-0005,ds001894,sub-005,ses-T1,task-VVWord,,run-01,135.468,4,5,control,1.394,1,blackcross.bmp,blackcross.bmp
ds001894_sub-0005,ds001894,sub-005,ses-T1,task-VVWord,,run-01,139.476,4.8,2,O+P-,1.288,0,wart.bmp,smart.bmp
ds001894_sub-0005,ds001894,sub-005,ses-T1,task-VVWord,,run-01,144.285,4.8,2,O+P-,1.77,0,dose.bmp,pose.bmp
ds001894_sub-0005,ds001894,sub-005,ses-T1,task-VVWord,,run-01,149.095,4.4,5,control,1.512,1,blackcross.bmp,blackcross.bmp
ds001894_sub-0005,ds001894,sub-005,ses-T1,task-VVWord,,run-01,153.504,4,2,O+P-,1.56,1,touch.bmp,couch.bmp
ds001894_sub-0005,ds001894,sub-005,ses-T1,task-VVWord,,run-01,157.511,4,6,perceptual,1.921,1,v.bmp,m.bmp
ds001894_sub-0005,ds001894,sub-005,ses-T1,task-VVWord,,run-01,161.519,4.8,5,control,1.391,1,blackcross.bmp,blackcross.bmp
ds001894_sub-0005,ds001894,sub-005,ses-T1,task-VVWord,,run-01,166.329,4.8,5,control,1.288,1,blackcross.bmp,blackcross.bmp
ds001894_sub-0005,ds001894,sub-005,ses-T1,task-VVWord,,run-01,171.138,4.4,5,control,1.527,1,blackcross.bmp,blackcross.bmp
ds001894_sub-0005,ds001894,sub-005,ses-T1,task-VVWord,,run-01,175.547,4,5,control,2.207,1,blackcross.bmp,blackcross.bmp
ds001894_sub-0005,ds001894,sub-005,ses-T1,task-VVWord,,run-01,179.555,4.8,5,control,2.206,1,blackcross.bmp,blackcross.bmp
ds001894_sub-0005,ds001894,sub-005,ses-T1,task-VVWord,,run-01,184.365,4.4,4,O-P-,1.509,1,port.bmp,warm.bmp
ds001894_sub-0005,ds001894,sub-005,ses-T1,task-VVWord,,run-01,188.773,4.8,3,O-P+,1.427,1,june.bmp,noon.bmp
ds001894_sub-0005,ds001894,sub-005,ses-T1,task-VVWord,,run-01,193.583,4.4,4,O-P-,1.565,1,wreath.bmp,leap.bmp
ds001894_sub-0005,ds001894,sub-005,ses-T1,task-VVWord,,run-01,197.992,4,5,control,1.469,1,blackcross.bmp,blackcross.bmp
ds001894_sub-0005,ds001894,sub-005,ses-T1,task-VVWord,,run-01,202,4.4,6,perceptual,1.478,1,c.bmp,d.bmp
ds001894_sub-0005,ds001894,sub-005,ses-T1,task-VVWord,,run-01,206.408,4.4,2,O+P-,1.81,1,glove.bmp,stove.bmp
ds001894_sub-0005,ds001894,sub-005,ses-T1,task-VVWord,,run-01,210.817,4.8,1,O+P+,1.535,1,numb.bmp,crumb.bmp
ds001894_sub-0005,ds001894,sub-005,ses-T1,task-VVWord,,run-01,215.627,4.8,2,O+P-,1.804,1,stood.bmp,flood.bmp
ds001894_sub-0005,ds001894,sub-005,ses-T1,task-VVWord,,run-01,220.436,4.4,6,perceptual,1.601,1,i.bmp,j.bmp
ds001894_sub-0005,ds001894,sub-005,ses-T1,task-VVWord,,run-01,224.845,4.8,4,O-P-,1.571,1,smart.bmp,drought.bmp
ds001894_sub-0005,ds001894,sub-005,ses-T1,task-VVWord,,run-01,229.654,4.4,3,O-P+,1.605,1,stir.bmp,blur.bmp
ds001894_sub-0005,ds001894,sub-005,ses-T1,task-VVWord,,run-01,234.063,4.4,5,control,0.327,1,blackcross.bmp,blackcross.bmp
ds001894_sub-0005,ds001894,sub-005,ses-T1,task-VVWord,,run-01,238.472,4.8,5,control,1.637,1,blackcross.bmp,blackcross.bmp
ds001894_sub-0005,ds001894,sub-005,ses-T1,task-VVWord,,run-01,243.281,4.8,2,O+P-,1.836,1,pool.bmp,wool.bmp
ds001894_sub-0005,ds001894,sub-005,ses-T1,task-VVWord,,run-01,248.091,4,5,control,1.938,1,blackcross.bmp,blackcross.bmp
ds001894_sub-0005,ds001894,sub-005,ses-T1,task-VVWord,,run-01,252.099,4.4,5,control,2.111,1,blackcross.bmp,blackcross.bmp
ds001894_sub-0005,ds001894,sub-005,ses-T1,task-VVWord,,run-01,256.507,4.4,2,O+P-,1.891,1,fought.bmp,drought.bmp
ds001894_sub-0005,ds001894,sub-005,ses-T1,task-VVWord,,run-01,260.916,4,3,O-P+,1.121,1,flight.bmp,spite.bmp
ds001894_sub-0005,ds001894,sub-005,ses-T1,task-VVWord,,run-01,264.924,4.4,3,O-P+,1.613,1,scheme.bmp,cream.bmp
ds001894_sub-0005,ds001894,sub-005,ses-T1,task-VVWord,,run-01,269.333,4,6,perceptual,2.104,1,z.bmp,g.bmp
ds001894_sub-0005,ds001894,sub-005,ses-T1,task-VVWord,,run-01,273.341,4.8,4,O-P-,1.758,1,ghost.bmp,pose.bmp
ds001894_sub-0005,ds001894,sub-005,ses-T1,task-VVWord,,run-01,278.15,4.4,5,control,1.704,1,blackcross.bmp,blackcross.bmp
ds001894_sub-0005,ds001894,sub-005,ses-T1,task-VVWord,,run-01,282.559,4,4,O-P-,1.677,1,grace.bmp,fence.bmp
ds001894_sub-0005,ds001894,sub-005,ses-T1,task-VVWord,,run-01,286.567,4,4,O-P-,1.843,1,dried.bmp,stood.bmp
ds001894_sub-0005,ds001894,sub-005,ses-T1,task-VVWord,,run-01,290.575,4,4,O-P-,2.384,1,ford.bmp,rod.bmp
ds001894_sub-0005,ds001894,sub-005,ses-T1,task-VVWord,,run-01,294.583,4.4,1,O+P+,1.961,1,strap.bmp,gap.bmp
ds001894_sub-0005,ds001894,sub-005,ses-T1,task-VVWord,,run-01,298.992,4.8,6,perceptual,1.617,1,e.bmp,f.bmp
ds001894_sub-0005,ds001894,sub-005,ses-T1,task-VVWord,,run-01,303.801,4,5,control,1.491,1,blackcross.bmp,blackcross.bmp
ds001894_sub-0005,ds001894,sub-005,ses-T1,task-VVWord,,run-01,307.809,4,4,O-P-,2.211,1,gross.bmp,post.bmp
ds001894_sub-0005,ds001894,sub-005,ses-T1,task-VVWord,,run-01,311.817,4,4,O-P-,1.656,1,fault.bmp,note.bmp
ds001894_sub-0005,ds001894,sub-005,ses-T1,task-VVWord,,run-01,315.825,4.8,1,O+P+,1.432,1,bull.bmp,full.bmp
ds001894_sub-0005,ds001894,sub-005,ses-T1,task-VVWord,,run-01,320.634,4.8,3,O-P+,1.56,1,chase.bmp,grace.bmp
ds001894_sub-0005,ds001894,sub-005,ses-T1,task-VVWord,,run-01,325.444,4,3,O-P+,1.944,0,float.bmp,note.bmp
ds001894_sub-0005,ds001894,sub-005,ses-T1,task-VVWord,,run-01,329.452,4.8,3,O-P+,1.671,1,bride.bmp,dried.bmp
ds001894_sub-0005,ds001894,sub-005,ses-T1,task-VVWord,,run-01,334.261,4.8,4,O-P-,1.641,1,thief.bmp,plead.bmp
ds001894_sub-0005,ds001894,sub-005,ses-T1,task-VVWord,,run-01,339.071,4.4,1,O+P+,1.645,1,bluff.bmp,puff.bmp
ds001894_sub-0005,ds001894,sub-005,ses-T1,task-VVWord,,run-01,343.48,4.8,6,perceptual,2.51,0,v.bmp,w.bmp
ds001894_sub-0005,ds001894,sub-005,ses-T1,task-VVWord,,run-01,348.289,4.8,1,O+P+,1.77,1,shove.bmp,glove.bmp
ds001894_sub-0005,ds001894,sub-005,ses-T1,task-VVWord,,run-01,353.099,4.4,6,perceptual,1.875,1,y.bmp,o.bmp
ds001894_sub-0005,ds001894,sub-005,ses-T1,task-VVWord,,run-01,357.507,4.8,2,O+P-,2.594,1,stamp.bmp,swamp.bmp
ds001894_sub-0005,ds001894,sub-005,ses-T1,task-VVWord,,run-01,362.317,4.4,4,O-P-,1.899,1,stamp.bmp,tomb.bmp
ds001894_sub-0005,ds001894,sub-005,ses-T1,task-VVWord,,run-01,366.726,4,5,control,2.503,1,blackcross.bmp,blackcross.bmp
ds001894_sub-0005,ds001894,sub-005,ses-T1,task-VVWord,,run-02,0,4.8,6,perceptual,1.475,1,a.bmp,s.bmp
ds001894_sub-0005,ds001894,sub-005,ses-T1,task-VVWord,,run-02,4.809,4.8,3,O-P+,1.244,1,fall.bmp,crawl.bmp
ds001894_sub-0005,ds001894,sub-005,ses-T1,task-VVWord,,run-02,9.619,4.4,3,O-P+,1.317,1,leap.bmp,sweep.bmp
ds001894_sub-0005,ds001894,sub-005,ses-T1,task-VVWord,,run-02,14.028,4,3,O-P+,1.295,1,tense.bmp,fence.bmp
ds001894_sub-0005,ds001894,sub-005,ses-T1,task-VVWord,,run-02,18.036,4,3,O-P+,1.504,1,soup.bmp,loop.bmp
ds001894_sub-0005,ds001894,sub-005,ses-T1,task-VVWord,,run-02,22.044,4.4,6,perceptual,1.89,1,j.bmp,b.bmp
ds001894_sub-0005,ds001894,sub-005,ses-T1,task-VVWord,,run-02,26.452,4,6,perceptual,1.637,1,h.bmp,p.bmp
ds001894_sub-0005,ds001894,sub-005,ses-T1,task-VVWord,,run-02,30.46,4,4,O-P-,1.471,1,pool.bmp,tooth.bmp
ds001894_sub-0005,ds001894,sub-005,ses-T1,task-VVWord,,run-02,34.468,4.8,4,O-P-,1.507,1,both.bmp,stroke.bmp
ds001894_sub-0005,ds001894,sub-005,ses-T1,task-VVWord,,run-02,39.278,4,1,O+P+,1.52,1,quart.bmp,wart.bmp
ds001894_sub-0005,ds001894,sub-005,ses-T1,task-VVWord,,run-02,43.286,4.8,5,control,1.658,1,blackcross.bmp,blackcross.bmp
ds001894_sub-0005,ds001894,sub-005,ses-T1,task-VVWord,,run-02,48.095,4.4,6,perceptual,1.729,1,a.bmp,b.bmp
ds001894_sub-0005,ds001894,sub-005,ses-T1,task-VVWord,,run-02,52.504,4.4,2,O+P-,1.411,0,pint.bmp,hint.bmp
ds001894_sub-0005,ds001894,sub-005,ses-T1,task-VVWord,,run-02,56.913,4.4,3,O-P+,1.979,1,wheel.bmp,deal.bmp
ds001894_sub-0005,ds001894,sub-005,ses-T1,task-VVWord,,run-02,61.321,4,2,O+P-,2.05,1,smooth.bmp,tooth.bmp
ds001894_sub-0005,ds001894,sub-005,ses-T1,task-VVWord,,run-02,65.329,4,3,O-P+,1.505,1,stool.bmp,rule.bmp
ds001894_sub-0005,ds001894,sub-005,ses-T1,task-VVWord,,run-02,69.337,4,5,control,1.844,1,blackcross.bmp,blackcross.bmp
ds001894_sub-0005,ds001894,sub-005,ses-T1,task-VVWord,,run-02,73.345,4,5,control,1.361,1,blackcross.bmp,blackcross.bmp
ds001894_sub-0005,ds001894,sub-005,ses-T1,task-VVWord,,run-02,77.353,4.4,5,control,1.532,1,blackcross.bmp,blackcross.bmp
ds001894_sub-0005,ds001894,sub-005,ses-T1,task-VVWord,,run-02,81.762,4.4,4,O-P-,1.39,1,flight.bmp,threat.bmp
ds001894_sub-0005,ds001894,sub-005,ses-T1,task-VVWord,,run-02,86.17,4.4,3,O-P+,1.438,1,bluff.bmp,tough.bmp
ds001894_sub-0005,ds001894,sub-005,ses-T1,task-VVWord,,run-02,90.579,4.8,6,perceptual,1.976,1,i.bmp,r.bmp
ds001894_sub-0005,ds001894,sub-005,ses-T1,task-VVWord,,run-02,95.389,4.8,3,O-P+,1.545,1,halt.bmp,fault.bmp
ds001894_sub-0005,ds001894,sub-005,ses-T1,task-VVWord,,run-02,100.198,4.4,2,O+P-,2.363,1,dull.bmp,bull.bmp
ds001894_sub-0005,ds001894,sub-005,ses-T1,task-VVWord,,run-02,104.607,4,1,O+P+,1.645,1,brow.bmp,cow.bmp
ds001894_sub-0005,ds001894,sub-005,ses-T1,task-VVWord,,run-02,108.615,4.8,1,O+P+,1.932,1,goat.bmp,float.bmp
ds001894_sub-0005,ds001894,sub-005,ses-T1,task-VVWord,,run-02,113.424,4,1,O+P+,1.574,1,glide.bmp,bride.bmp
ds001894_sub-0005,ds001894,sub-005,ses-T1,task-VVWord,,run-02,117.432,4,5,control,1.791,1,blackcross.bmp,blackcross.bmp
ds001894_sub-0005,ds001894,sub-005,ses-T1,task-VVWord,,run-02,121.44,4,5,control,1.878,1,blackcross.bmp,blackcross.bmp
ds001894_sub-0005,ds001894,sub-005,ses-T1,task-VVWord,,run-02,125.448,4,5,control,1.81,1,blackcross.bmp,blackcross.bmp
ds001894_sub-0005,ds001894,sub-005,ses-T1,task-VVWord,,run-02,129.456,4.8,2,O+P-,1.591,0,plead.bmp,spread.bmp
ds001894_sub-0005,ds001894,sub-005,ses-T1,task-VVWord,,run-02,134.266,4.4,6,perceptual,1.822,1,t.bmp,u.bmp
ds001894_sub-0005,ds001894,sub-005,ses-T1,task-VVWord,,run-02,138.674,4.8,3,O-P+,1.396,1,roast.bmp,ghost.bmp
ds001894_sub-0005,ds001894,sub-005,ses-T1,task-VVWord,,run-02,143.484,4,6,perceptual,NA,0,y.bmp,z.bmp
ds001894_sub-0005,ds001894,sub-005,ses-T1,task-VVWord,,run-02,147.492,4.8,5,control,1.707,1,blackcross.bmp,blackcross.bmp
ds001894_sub-0005,ds001894,sub-005,ses-T1,task-VVWord,,run-02,152.301,4.8,3,O-P+,1.166,1,odd.bmp,rod.bmp
ds001894_sub-0005,ds001894,sub-005,ses-T1,task-VVWord,,run-02,157.111,4.4,1,O+P+,1.385,1,spoon.bmp,noon.bmp
ds001894_sub-0005,ds001894,sub-005,ses-T1,task-VVWord,,run-02,161.52,4.8,5,control,1.944,1,blackcross.bmp,blackcross.bmp
ds001894_sub-0005,ds001894,sub-005,ses-T1,task-VVWord,,run-02,166.329,4.8,5,control,2.252,1,blackcross.bmp,blackcross.bmp
ds001894_sub-0005,ds001894,sub-005,ses-T1,task-VVWord,,run-02,171.139,4.8,5,control,1.956,1,blackcross.bmp,blackcross.bmp
ds001894_sub-0005,ds001894,sub-005,ses-T1,task-VVWord,,run-02,175.948,4,5,control,1.921,1,blackcross.bmp,blackcross.bmp
ds001894_sub-0005,ds001894,sub-005,ses-T1,task-VVWord,,run-02,179.956,4.8,5,control,2.007,1,blackcross.bmp,blackcross.bmp
ds001894_sub-0005,ds001894,sub-005,ses-T1,task-VVWord,,run-02,184.766,4,2,O+P-,2.57,1,breath.bmp,wreath.bmp
ds001894_sub-0005,ds001894,sub-005,ses-T1,task-VVWord,,run-02,188.774,4.4,1,O+P+,1.43,1,neat.bmp,wheat.bmp
ds001894_sub-0005,ds001894,sub-005,ses-T1,task-VVWord,,run-02,193.182,4,2,O+P-,1.945,1,mouth.bmp,youth.bmp
ds001894_sub-0005,ds001894,sub-005,ses-T1,task-VVWord,,run-02,197.19,4.8,1,O+P+,1.569,1,toss.bmp,moss.bmp
ds001894_sub-0005,ds001894,sub-005,ses-T1,task-VVWord,,run-02,202,4.8,5,control,2.205,1,blackcross.bmp,blackcross.bmp
ds001894_sub-0005,ds001894,sub-005,ses-T1,task-VVWord,,run-02,206.809,4.4,6,perceptual,1.626,1,g.bmp,h.bmp
ds001894_sub-0005,ds001894,sub-005,ses-T1,task-VVWord,,run-02,211.218,4.8,4,O-P-,2.609,1,rule.bmp,blur.bmp
ds001894_sub-0005,ds001894,sub-005,ses-T1,task-VVWord,,run-02,216.028,4,2,O+P-,1.924,0,tomb.bmp,comb.bmp
ds001894_sub-0005,ds001894,sub-005,ses-T1,task-VVWord,,run-02,220.036,4.8,6,perceptual,1.393,1,r.bmp,s.bmp
ds001894_sub-0005,ds001894,sub-005,ses-T1,task-VVWord,,run-02,224.845,4,4,O-P-,1.704,1,june.bmp,loop.bmp
ds001894_sub-0005,ds001894,sub-005,ses-T1,task-VVWord,,run-02,228.853,4.4,3,O-P+,1.448,1,warm.bmp,form.bmp
ds001894_sub-0005,ds001894,sub-005,ses-T1,task-VVWord,,run-02,233.262,4.4,4,O-P-,2.236,1,rum.bmp,touch.bmp
ds001894_sub-0005,ds001894,sub-005,ses-T1,task-VVWord,,run-02,237.67,4,2,O+P-,2.372,1,gross.bmp,moss.bmp
ds001894_sub-0005,ds001894,sub-005,ses-T1,task-VVWord,,run-02,241.678,4,4,O-P-,1.567,1,glow.bmp,stove.bmp
ds001894_sub-0005,ds001894,sub-005,ses-T1,task-VVWord,,run-02,245.686,4.8,5,control,1.637,1,blackcross.bmp,blackcross.bmp
ds001894_sub-0005,ds001894,sub-005,ses-T1,task-VVWord,,run-02,250.496,4.8,4,O-P-,1.503,1,wheel.bmp,sneak.bmp
ds001894_sub-0005,ds001894,sub-005,ses-T1,task-VVWord,,run-02,255.305,4,5,control,1.88,1,blackcross.bmp,blackcross.bmp
ds001894_sub-0005,ds001894,sub-005,ses-T1,task-VVWord,,run-02,259.313,4.4,2,O+P-,2.111,1,cow.bmp,glow.bmp
ds001894_sub-0005,ds001894,sub-005,ses-T1,task-VVWord,,run-02,263.722,4.4,1,O+P+,1.487,1,pile.bmp,mile.bmp
ds001894_sub-0005,ds001894,sub-005,ses-T1,task-VVWord,,run-02,268.131,4.8,3,O-P+,1.571,1,cheek.bmp,sneak.bmp
ds001894_sub-0005,ds001894,sub-005,ses-T1,task-VVWord,,run-02,272.94,4.4,4,O-P-,1.937,1,youth.bmp,hint.bmp
ds001894_sub-0005,ds001894,sub-005,ses-T1,task-VVWord,,run-02,277.349,4.4,5,control,1.55,1,blackcross.bmp,blackcross.bmp
ds001894_sub-0005,ds001894,sub-005,ses-T1,task-VVWord,,run-02,281.758,4,3,O-P+,1.577,1,thief.bmp,beef.bmp
ds001894_sub-0005,ds001894,sub-005,ses-T1,task-VVWord,,run-02,285.766,4.4,5,control,1.82,1,blackcross.bmp,blackcross.bmp
ds001894_sub-0005,ds001894,sub-005,ses-T1,task-VVWord,,run-02,290.174,4.8,2,O+P-,1.455,0,swarm.bmp,harm.bmp
ds001894_sub-0005,ds001894,sub-005,ses-T1,task-VVWord,,run-02,294.984,4,6,perceptual,1.607,1,l.bmp,d.bmp
ds001894_sub-0005,ds001894,sub-005,ses-T1,task-VVWord,,run-02,298.992,4.4,2,O+P-,2.256,1,both.bmp,cloth.bmp
ds001894_sub-0005,ds001894,sub-005,ses-T1,task-VVWord,,run-02,303.401,4.4,5,control,1.731,1,blackcross.bmp,blackcross.bmp
ds001894_sub-0005,ds001894,sub-005,ses-T1,task-VVWord,,run-02,307.809,4.8,4,O-P-,2.306,1,cream.bmp,swarm.bmp
ds001894_sub-0005,ds001894,sub-005,ses-T1,task-VVWord,,run-02,312.619,4.4,2,O+P-,1.778,1,ford.bmp,word.bmp
ds001894_sub-0005,ds001894,sub-005,ses-T1,task-VVWord,,run-02,317.028,4.4,1,O+P+,1.43,1,vase.bmp,chase.bmp
ds001894_sub-0005,ds001894,sub-005,ses-T1,task-VVWord,,run-02,321.436,4,6,perceptual,1.77,1,f.bmp,n.bmp
ds001894_sub-0005,ds001894,sub-005,ses-T1,task-VVWord,,run-02,325.444,4.8,1,O+P+,1.39,1,flood.bmp,blood.bmp
ds001894_sub-0005,ds001894,sub-005,ses-T1,task-VVWord,,run-02,330.254,4,3,O-P+,2.684,0,quart.bmp,port.bmp
ds001894_sub-0005,ds001894,sub-005,ses-T1,task-VVWord,,run-02,334.262,4.4,5,control,1.979,1,blackcross.bmp,blackcross.bmp
ds001894_sub-0005,ds001894,sub-005,ses-T1,task-VVWord,,run-02,338.67,4,2,O+P-,1.965,0,swap.bmp,gap.bmp
ds001894_sub-0005,ds001894,sub-005,ses-T1,task-VVWord,,run-02,342.678,4,1,O+P+,1.772,1,frost.bmp,cost.bmp
ds001894_sub-0005,ds001894,sub-005,ses-T1,task-VVWord,,run-02,346.686,4.8,5,control,2.104,1,blackcross.bmp,blackcross.bmp
ds001894_sub-0005,ds001894,sub-005,ses-T1,task-VVWord,,run-02,351.496,4.4,5,control,1.93,1,blackcross.bmp,blackcross.bmp
ds001894_sub-0005,ds001894,sub-005,ses-T1,task-VVWord,,run-02,355.904,4.8,1,O+P+,1.432,1,harm.bmp,farm.bmp
ds001894_sub-0005,ds001894,sub-005,ses-T1,task-VVWord,,run-02,360.714,4.8,2,O+P-,2.805,0,scratch.bmp,watch.bmp
ds001894_sub-0005,ds001894,sub-005,ses-T1,task-VVWord,,run-02,365.524,5.2,5,control,1.991,1,blackcross.bmp,blackcross.bmp
ds001894_sub-0006,ds001894,sub-006,ses-T1,task-VVWord,,run-01,0,4,2,O+P-,0.94,0,post.bmp,cost.bmp
ds001894_sub-0006,ds001894,sub-006,ses-T1,task-VVWord,,run-01,4.00699999999995,4,5,control,1.523,1,blackcross.bmp,blackcross.bmp
ds001894_sub-0006,ds001894,sub-006,ses-T1,task-VVWord,,run-01,8.01499999999999,4.4,6,perceptual,1.511,1,o.bmp,p.bmp
ds001894_sub-0006,ds001894,sub-006,ses-T1,task-VVWord,,run-01,12.424,4,3,O-P+,0.98,1,rum.bmp,numb.bmp
ds001894_sub-0006,ds001894,sub-006,ses-T1,task-VVWord,,run-01,16.432,4.8,5,control,1.662,1,blackcross.bmp,blackcross.bmp
ds001894_sub-0006,ds001894,sub-006,ses-T1,task-VVWord,,run-01,21.241,4,6,perceptual,1.348,1,c.bmp,u.bmp
ds001894_sub-0006,ds001894,sub-006,ses-T1,task-VVWord,,run-01,25.249,4,1,O+P+,1.196,1,fought.bmp,sought.bmp
ds001894_sub-0006,ds001894,sub-006,ses-T1,task-VVWord,,run-01,29.257,4,1,O+P+,0.917,1,scheme.bmp,theme.bmp
ds001894_sub-0006,ds001894,sub-006,ses-T1,task-VVWord,,run-01,33.265,4,6,perceptual,1.03,1,m.bmp,n.bmp
ds001894_sub-0006,ds001894,sub-006,ses-T1,task-VVWord,,run-01,37.273,4.4,1,O+P+,0.912,1,stool.bmp,fool.bmp
ds001894_sub-0006,ds001894,sub-006,ses-T1,task-VVWord,,run-01,41.681,4.4,5,control,1.44,1,blackcross.bmp,blackcross.bmp
ds001894_sub-0006,ds001894,sub-006,ses-T1,task-VVWord,,run-01,46.09,4.4,1,O+P+,0.831,1,soak.bmp,oak.bmp
ds001894_sub-0006,ds001894,sub-006,ses-T1,task-VVWord,,run-01,50.499,4.4,2,O+P-,0.921,0,threat.bmp,wheat.bmp
ds001894_sub-0006,ds001894,sub-006,ses-T1,task-VVWord,,run-01,54.907,4,1,O+P+,0.828,1,thread.bmp,spread.bmp
ds001894_sub-0006,ds001894,sub-006,ses-T1,task-VVWord,,run-01,58.915,4.4,3,O-P+,1.101,1,pile.bmp,trial.bmp
ds001894_sub-0006,ds001894,sub-006,ses-T1,task-VVWord,,run-01,63.324,4.8,4,O-P-,1.097,1,swap.bmp,watch.bmp
ds001894_sub-0006,ds001894,sub-006,ses-T1,task-VVWord,,run-01,68.133,4.8,5,control,1.974,1,blackcross.bmp,blackcross.bmp
ds001894_sub-0006,ds001894,sub-006,ses-T1,task-VVWord,,run-01,72.943,4.4,5,control,1.716,1,blackcross.bmp,blackcross.bmp
ds001894_sub-0006,ds001894,sub-006,ses-T1,task-VVWord,,run-01,77.351,4.4,4,O-P-,1.213,1,tough.bmp,dull.bmp
ds001894_sub-0006,ds001894,sub-006,ses-T1,task-VVWord,,run-01,81.76,4.8,6,perceptual,1.612,1,w.bmp,e.bmp
ds001894_sub-0006,ds001894,sub-006,ses-T1,task-VVWord,,run-01,86.57,4.8,1,O+P+,1.209,1,sweep.bmp,creep.bmp
ds001894_sub-0006,ds001894,sub-006,ses-T1,task-VVWord,,run-01,91.379,4.8,6,perceptual,1.715,1,k.bmp,t.bmp
ds001894_sub-0006,ds001894,sub-006,ses-T1,task-VVWord,,run-01,96.188,4.4,5,control,1.807,1,blackcross.bmp,blackcross.bmp
ds001894_sub-0006,ds001894,sub-006,ses-T1,task-VVWord,,run-01,100.597,4.4,3,O-P+,1.314,0,stroke.bmp,soak.bmp
ds001894_sub-0006,ds001894,sub-006,ses-T1,task-VVWord,,run-01,105.006,4.4,4,O-P-,1.085,1,trial.bmp,fall.bmp
ds001894_sub-0006,ds001894,sub-006,ses-T1,task-VVWord,,run-01,109.414,4.8,6,perceptual,1.035,1,k.bmp,l.bmp
ds001894_sub-0006,ds001894,sub-006,ses-T1,task-VVWord,,run-01,114.224,4,5,control,1.925,1,blackcross.bmp,blackcross.bmp
ds001894_sub-0006,ds001894,sub-006,ses-T1,task-VVWord,,run-01,118.232,4.4,5,control,1.577,1,blackcross.bmp,blackcross.bmp
ds001894_sub-0006,ds001894,sub-006,ses-T1,task-VVWord,,run-01,122.64,4.4,5,control,1.682,1,blackcross.bmp,blackcross.bmp
ds001894_sub-0006,ds001894,sub-006,ses-T1,task-VVWord,,run-01,127.049,4.4,5,control,1.65,1,blackcross.bmp,blackcross.bmp
ds001894_sub-0006,ds001894,sub-006,ses-T1,task-VVWord,,run-01,131.458,4,1,O+P+,0.967,1,beef.bmp,reef.bmp
ds001894_sub-0006,ds001894,sub-006,ses-T1,task-VVWord,,run-01,135.466,4,5,control,1.714,1,blackcross.bmp,blackcross.bmp
ds001894_sub-0006,ds001894,sub-006,ses-T1,task-VVWord,,run-01,139.474,4.8,2,O+P-,1.522,1,wart.bmp,smart.bmp
ds001894_sub-0006,ds001894,sub-006,ses-T1,task-VVWord,,run-01,144.283,4.8,2,O+P-,2.278,1,dose.bmp,pose.bmp
ds001894_sub-0006,ds001894,sub-006,ses-T1,task-VVWord,,run-01,149.092,4.4,5,control,1.692,1,blackcross.bmp,blackcross.bmp
ds001894_sub-0006,ds001894,sub-006,ses-T1,task-VVWord,,run-01,153.501,4,2,O+P-,2.59,1,touch.bmp,couch.bmp
ds001894_sub-0006,ds001894,sub-006,ses-T1,task-VVWord,,run-01,157.509,4,6,perceptual,1.421,1,v.bmp,m.bmp
ds001894_sub-0006,ds001894,sub-006,ses-T1,task-VVWord,,run-01,161.517,4.8,5,control,1.64,1,blackcross.bmp,blackcross.bmp
ds001894_sub-0006,ds001894,sub-006,ses-T1,task-VVWord,,run-01,166.326,4.8,5,control,1.619,1,blackcross.bmp,blackcross.bmp
ds001894_sub-0006,ds001894,sub-006,ses-T1,task-VVWord,,run-01,171.136,4.4,5,control,1.546,1,blackcross.bmp,blackcross.bmp
ds001894_sub-0006,ds001894,sub-006,ses-T1,task-VVWord,,run-01,175.544,4,5,control,1.68,1,blackcross.bmp,blackcross.bmp
ds001894_sub-0006,ds001894,sub-006,ses-T1,task-VVWord,,run-01,179.552,4.8,5,control,1.485,1,blackcross.bmp,blackcross.bmp
ds001894_sub-0006,ds001894,sub-006,ses-T1,task-VVWord,,run-01,184.362,4.4,4,O-P-,1.113,1,port.bmp,warm.bmp
ds001894_sub-0006,ds001894,sub-006,ses-T1,task-VVWord,,run-01,188.77,4.8,3,O-P+,1.855,1,june.bmp,noon.bmp
ds001894_sub-0006,ds001894,sub-006,ses-T1,task-VVWord,,run-01,193.58,4.4,4,O-P-,1.03,1,wreath.bmp,leap.bmp
ds001894_sub-0006,ds001894,sub-006,ses-T1,task-VVWord,,run-01,197.988,4,5,control,1.468,1,blackcross.bmp,blackcross.bmp
ds001894_sub-0006,ds001894,sub-006,ses-T1,task-VVWord,,run-01,201.996,4.4,6,perceptual,1.249,1,c.bmp,d.bmp
ds001894_sub-0006,ds001894,sub-006,ses-T1,task-VVWord,,run-01,206.405,4.4,2,O+P-,1.635,1,glove.bmp,stove.bmp
ds001894_sub-0006,ds001894,sub-006,ses-T1,task-VVWord,,run-01,210.814,4.8,1,O+P+,0.915,1,numb.bmp,crumb.bmp
ds001894_sub-0006,ds001894,sub-006,ses-T1,task-VVWord,,run-01,215.623,4.8,2,O+P-,1.496,1,stood.bmp,flood.bmp
ds001894_sub-0006,ds001894,sub-006,ses-T1,task-VVWord,,run-01,220.432,4.4,6,perceptual,0.992,1,i.bmp,j.bmp
ds001894_sub-0006,ds001894,sub-006,ses-T1,task-VVWord,,run-01,224.841,4.8,4,O-P-,1.079,1,smart.bmp,drought.bmp
ds001894_sub-0006,ds001894,sub-006,ses-T1,task-VVWord,,run-01,229.651,4.4,3,O-P+,0.76,1,stir.bmp,blur.bmp
ds001894_sub-0006,ds001894,sub-006,ses-T1,task-VVWord,,run-01,234.059,4.4,5,control,1.802,1,blackcross.bmp,blackcross.bmp
ds001894_sub-0006,ds001894,sub-006,ses-T1,task-VVWord,,run-01,238.468,4.8,5,control,1.245,1,blackcross.bmp,blackcross.bmp
ds001894_sub-0006,ds001894,sub-006,ses-T1,task-VVWord,,run-01,243.277,4.8,2,O+P-,0.91,0,pool.bmp,wool.bmp
ds001894_sub-0006,ds001894,sub-006,ses-T1,task-VVWord,,run-01,248.087,4,5,control,1.318,1,blackcross.bmp,blackcross.bmp
ds001894_sub-0006,ds001894,sub-006,ses-T1,task-VVWord,,run-01,252.095,4.4,5,control,1.119,1,blackcross.bmp,blackcross.bmp
ds001894_sub-0006,ds001894,sub-006,ses-T1,task-VVWord,,run-01,256.503,4.4,2,O+P-,1.084,0,fought.bmp,drought.bmp
