unique_id,dataset,participant_id,session,task,acquisition,run,onset,duration,trial_type,condition,response_time,accuracy,stim1,stim2
ds006239_sub-1002,ds006239,sub-1002,ses-1,task-ReadPhon,acq-D2S0401,run-1,1.51,4.799,3,O+P-,1233,1,T3_post.bmp,T1_cost.bmp
ds006239_sub-1002,ds006239,sub-1002,ses-1,task-ReadPhon,acq-D2S0401,run-1,6.309,5.316,5,perceptual,1162,1,_F3_o4.bmp,_F2_o4.bmp
ds006239_sub-1002,ds006239,sub-1002,ses-1,task-ReadPhon,acq-D2S0401,run-1,11.625,4.8,2,O-P+,1734,1,T3_rum.bmp,T1_numb.bmp
ds006239_sub-1002,ds006239,sub-1002,ses-1,task-ReadPhon,acq-D2S0401,run-1,16.425,5.799,7,control,1127,1,Gen/_Fix_Green.bmp,Gen/_Fix_Green.bmp
ds006239_sub-1002,ds006239,sub-1002,ses-1,task-ReadPhon,acq-D2S0401,run-1,22.224,4.799,6,perceptual,1055,1,_F3_s6.bmp,_F0_e6.bmp
ds006239_sub-1002,ds006239,sub-1002,ses-1,task-ReadPhon,acq-D2S0401,run-1,27.023,4.8,1,O+P+,1128,1,T3_fought.bmp,T1_sought.bmp
ds006239_sub-1002,ds006239,sub-1002,ses-1,task-ReadPhon,acq-D2S0401,run-1,31.823,4.799,1,O+P+,1121,1,T3_scheme.bmp,T2_theme.bmp
ds006239_sub-1002,ds006239,sub-1002,ses-1,task-ReadPhon,acq-D2S0401,run-1,36.622,4.816,5,perceptual,977,1,_F3_f4.bmp,_F0_f4.bmp
ds006239_sub-1002,ds006239,sub-1002,ses-1,task-ReadPhon,acq-D2S0401,run-1,41.438,5.299,1,O+P+,1145,1,T3_stool.bmp,T0_fool.bmp
ds006239_sub-1002,ds006239,sub-1002,ses-1,task-ReadPhon,acq-D2S0401,run-1,46.737,5.3,1,O+P+,1158,1,T3_soak.bmp,T0_oak.bmp
ds006239_sub-1002,ds006239,sub-1002,ses-1,task-ReadPhon,acq-D2S0401,run-1,52.037,5.299,3,O+P-,1155,1,T3_threat.bmp,T1_wheat.bmp
ds006239_sub-1002,ds006239,sub-1002,ses-1,task-ReadPhon,acq-D2S0401,run-1,57.336,4.799,1,O+P+,1095,1,T3_thread.bmp,T0_spread.bmp
ds006239_sub-1002,ds006239,sub-1002,ses-1,task-ReadPhon,acq-D2S0401,run-1,62.135,5.8,2,O-P+,1184,1,T3_pile.bmp,T1_trial.bmp
ds006239_sub-1002,ds006239,sub-1002,ses-1,task-ReadPhon,acq-D2S0401,run-1,67.935,5.815,4,O-P-,3185,1,T3_swap.bmp,T2_watch.bmp
ds006239_sub-1002,ds006239,sub-1002,ses-1,task-ReadPhon,acq-D2S0401,run-1,73.75,5.783,8,control,897,1,Gen/_Fix_Green.bmp,Gen/_Fix_Red.bmp
ds006239_sub-1002,ds006239,sub-1002,ses-1,task-ReadPhon,acq-D2S0401,run-1,79.533,5.299,4,O-P-,1770,1,T3_tough.bmp,T1_dull.bmp
ds006239_sub-1002,ds006239,sub-1002,ses-1,task-ReadPhon,acq-D2S0401,run-1,84.832,5.8,6,perceptual,1279,1,_F3_o4.bmp,_F2_b4.bmp
ds006239_sub-1002,ds006239,sub-1002,ses-1,task-ReadPhon,acq-D2S0401,run-1,90.632,5.799,1,O+P+,960,1,T3_sweep.bmp,T0_creep.bmp
ds006239_sub-1002,ds006239,sub-1002,ses-1,task-ReadPhon,acq-D2S0401,run-1,96.431,5.816,6,perceptual,856,1,_F3_d6.bmp,_F1_o6.bmp
ds006239_sub-1002,ds006239,sub-1002,ses-1,task-ReadPhon,acq-D2S0401,run-1,102.247,4.799,8,control,952,1,Gen/_Fix_Green.bmp,Gen/_Fix_Red.bmp
ds006239_sub-1002,ds006239,sub-1002,ses-1,task-ReadPhon,acq-D2S0401,run-1,107.046,4.799,2,O-P+,1225,1,T3_stroke.bmp,T1_soak.bmp
ds006239_sub-1002,ds006239,sub-1002,ses-1,task-ReadPhon,acq-D2S0401,run-1,111.845,5.317,4,O-P-,1202,1,T3_trial.bmp,T0_fall.bmp
ds006239_sub-1002,ds006239,sub-1002,ses-1,task-ReadPhon,acq-D2S0401,run-1,117.162,5.799,5,perceptual,814,1,_F3_s6.bmp,_F0_s6.bmp
ds006239_sub-1002,ds006239,sub-1002,ses-1,task-ReadPhon,acq-D2S0401,run-1,122.961,4.816,7,control,910,1,Gen/_Fix_Green.bmp,Gen/_Fix_Green.bmp
ds006239_sub-1002,ds006239,sub-1002,ses-1,task-ReadPhon,acq-D2S0401,run-1,127.777,4.799,8,control,734,1,Gen/_Fix_Red.bmp,Gen/_Fix_Green.bmp
ds006239_sub-1002,ds006239,sub-1002,ses-1,task-ReadPhon,acq-D2S0401,run-1,132.576,5.3,7,control,1087,1,Gen/_Fix_Red.bmp,Gen/_Fix_Red.bmp
ds006239_sub-1002,ds006239,sub-1002,ses-1,task-ReadPhon,acq-D2S0401,run-1,137.876,4.799,1,O+P+,1012,1,T3_beef.bmp,T1_reef.bmp
ds006239_sub-1002,ds006239,sub-1002,ses-1,task-ReadPhon,acq-D2S0401,run-1,142.675,5.799,3,O+P-,2700,0,T3_wart.bmp,T1_smart.bmp
ds006239_sub-1002,ds006239,sub-1002,ses-1,task-ReadPhon,acq-D2S0401,run-1,148.474,5.799,3,O+P-,2413,1,T3_dose.bmp,T0_pose.bmp
ds006239_sub-1002,ds006239,sub-1002,ses-1,task-ReadPhon,acq-D2S0401,run-1,154.273,4.816,3,O+P-,1190,1,T3_touch.bmp,T1_couch.bmp
ds006239_sub-1002,ds006239,sub-1002,ses-1,task-ReadPhon,acq-D2S0401,run-1,159.089,4.8,6,perceptual,1430,1,_F3_e6.bmp,_F0_s6.bmp
ds006239_sub-1002,ds006239,sub-1002,ses-1,task-ReadPhon,acq-D2S0401,run-1,163.889,5.799,8,control,1318,1,Gen/_Fix_Green.bmp,Gen/_Fix_Red.bmp
ds006239_sub-1002,ds006239,sub-1002,ses-1,task-ReadPhon,acq-D2S0401,run-1,169.688,5.799,7,control,999,1,Gen/_Fix_Green.bmp,Gen/_Fix_Green.bmp
ds006239_sub-1002,ds006239,sub-1002,ses-1,task-ReadPhon,acq-D2S0401,run-1,175.487,5.3,8,control,768,1,Gen/_Fix_Red.bmp,Gen/_Fix_Green.bmp
ds006239_sub-1002,ds006239,sub-1002,ses-1,task-ReadPhon,acq-D2S0401,run-1,180.787,4.816,7,control,1085,1,Gen/_Fix_Red.bmp,Gen/_Fix_Red.bmp
ds006239_sub-1002,ds006239,sub-1002,ses-1,task-ReadPhon,acq-D2S0401,run-1,185.603,5.299,4,O-P-,1172,1,T3_port.bmp,T1_warm.bmp
ds006239_sub-1002,ds006239,sub-1002,ses-1,task-ReadPhon,acq-D2S0401,run-1,190.902,5.799,2,O-P+,1121,1,T3_june.bmp,T2_noon.bmp
ds006239_sub-1002,ds006239,sub-1002,ses-1,task-ReadPhon,acq-D2S0401,run-1,196.701,4.783,4,O-P-,3074,1,T3_wreath.bmp,T0_leap.bmp
ds006239_sub-1002,ds006239,sub-1002,ses-1,task-ReadPhon,acq-D2S0401,run-1,201.484,4.799,5,perceptual,2451,1,_F3_b6.bmp,_F2_b6.bmp
ds006239_sub-1002,ds006239,sub-1002,ses-1,task-ReadPhon,acq-D2S0401,run-1,206.283,5.3,3,O+P-,1076,1,T3_glove.bmp,T0_stove.bmp
ds006239_sub-1002,ds006239,sub-1002,ses-1,task-ReadPhon,acq-D2S0401,run-1,211.583,5.815,1,O+P+,1225,1,T3_numb.bmp,T1_crumb.bmp
ds006239_sub-1002,ds006239,sub-1002,ses-1,task-ReadPhon,acq-D2S0401,run-1,217.398,4.8,3,O+P-,1489,1,T3_stood.bmp,T2_flood.bmp
ds006239_sub-1002,ds006239,sub-1002,ses-1,task-ReadPhon,acq-D2S0401,run-1,222.198,5.299,5,perceptual,929,1,_F3_s4.bmp,_F1_s4.bmp
ds006239_sub-1002,ds006239,sub-1002,ses-1,task-ReadPhon,acq-D2S0401,run-1,227.497,5.799,4,O-P-,1102,1,T3_smart.bmp,T1_drought.bmp
ds006239_sub-1002,ds006239,sub-1002,ses-1,task-ReadPhon,acq-D2S0401,run-1,233.296,5.3,2,O-P+,927,1,T3_stir.bmp,T2_blur.bmp
ds006239_sub-1002,ds006239,sub-1002,ses-1,task-ReadPhon,acq-D2S0401,run-1,238.596,5.316,8,control,723,1,Gen/_Fix_Red.bmp,Gen/_Fix_Green.bmp
ds006239_sub-1002,ds006239,sub-1002,ses-1,task-ReadPhon,acq-D2S0401,run-1,243.912,5.316,7,control,831,1,Gen/_Fix_Red.bmp,Gen/_Fix_Red.bmp
ds006239_sub-1002,ds006239,sub-1002,ses-1,task-ReadPhon,acq-D2S0401,run-1,249.228,5.799,3,O+P-,1099,1,T3_pool.bmp,T0_wool.bmp
ds006239_sub-1002,ds006239,sub-1002,ses-1,task-ReadPhon,acq-D2S0401,run-1,255.027,5.299,3,O+P-,1660,1,T3_fought.bmp,T2_drought.bmp
ds006239_sub-1002,ds006239,sub-1002,ses-1,task-ReadPhon,acq-D2S0401,run-1,260.326,4.8,2,O-P+,1121,1,T3_flight.bmp,T1_spite.bmp
ds006239_sub-1002,ds006239,sub-1002,ses-1,task-ReadPhon,acq-D2S0401,run-1,265.126,5.299,2,O-P+,1057,1,T3_scheme.bmp,T0_cream.bmp
ds006239_sub-1002,ds006239,sub-1002,ses-1,task-ReadPhon,acq-D2S0401,run-1,270.425,5.316,6,perceptual,1134,1,_F3_b6.bmp,_F2_f6.bmp
ds006239_sub-1002,ds006239,sub-1002,ses-1,task-ReadPhon,acq-D2S0401,run-1,275.741,5.799,4,O-P-,1554,1,T3_ghost.bmp,T0_pose.bmp
ds006239_sub-1002,ds006239,sub-1002,ses-1,task-ReadPhon,acq-D2S0401,run-1,281.54,4.8,4,O-P-,1227,1,T3_grace.bmp,T1_fence.bmp
ds006239_sub-1002,ds006239,sub-1002,ses-1,task-ReadPhon,acq-D2S0401,run-1,286.34,4.799,3,O+P-,900,0,T3_dull.bmp,T2_bull.bmp
ds006239_sub-1002,ds006239,sub-1002,ses-1,task-ReadPhon,acq-D2S0401,run-1,291.139,4.799,4,O-P-,1212,1,T3_ford.bmp,T2_rod.bmp
ds006239_sub-1002,ds006239,sub-1002,ses-1,task-ReadPhon,acq-D2S0401,run-1,295.938,5.3,1,O+P+,733,1,T3_strap.bmp,T2_gap.bmp
ds006239_sub-1002,ds006239,sub-1002,ses-1,task-ReadPhon,acq-D2S0401,run-1,301.238,5.316,4,O-P-,977,1,T3_stamp.bmp,T2_tomb.bmp
ds006239_sub-1002,ds006239,sub-1002,ses-1,task-ReadPhon,acq-D2S0401,run-1,306.554,5.299,2,O-P+,789,1,T3_wheel.bmp,T0_deal.bmp
ds006239_sub-1002,ds006239,sub-1002,ses-1,task-ReadPhon,acq-D2S0401,run-1,311.853,5.299,2,O-P+,930,1,T3_leap.bmp,T2_sweep.bmp
ds006239_sub-1002,ds006239,sub-1002,ses-1,task-ReadPhon,acq-D2S0401,run-1,317.152,4.8,4,O-P-,839,1,T3_fault.bmp,T2_note.bmp
ds006239_sub-1002,ds006239,sub-1002,ses-1,task-ReadPhon,acq-D2S0401,run-1,321.952,5.799,1,O+P+,847,1,T3_bull.bmp,T2_full.bmp
ds006239_sub-1002,ds006239,sub-1002,ses-1,task-ReadPhon,acq-D2S0401,run-1,327.751,5.782,2,O-P+,960,1,T3_chase.bmp,T2_grace.bmp
ds006239_sub-1002,ds006239,sub-1002,ses-1,task-ReadPhon,acq-D2S0401,run-1,333.533,4.816,2,O-P+,994,1,T3_float.bmp,T0_note.bmp
ds006239_sub-1002,ds006239,sub-1002,ses-1,task-ReadPhon,acq-D2S0401,run-1,338.349,5.8,2,O-P+,1026,1,T3_bride.bmp,T0_dried.bmp
ds006239_sub-1002,ds006239,sub-1002,ses-1,task-ReadPhon,acq-D2S0401,run-1,344.149,5.799,4,O-P-,1042,1,T3_thief.bmp,T0_plead.bmp
ds006239_sub-1002,ds006239,sub-1002,ses-1,task-ReadPhon,acq-D2S0401,run-1,349.948,5.299,1,O+P+,811,1,T3_bluff.bmp,T2_puff.bmp
ds006239_sub-1002,ds006239,sub-1002,ses-1,task-ReadPhon,acq-D2S0401,run-1,355.247,5.8,5,perceptual,760,1,_F3_b4.bmp,_F1_b4.bmp
ds006239_sub-1002,ds006239,sub-1002,ses-1,task-ReadPhon,acq-D2S0401,run-1,361.047,5.815,1,O+P+,961,1,T3_shove.bmp,T1_glove.bmp
ds006239_sub-1002,ds006239,sub-1002,ses-1,task-ReadPhon,acq-D2S0401,run-1,366.862,5.3,6,perceptual,761,1,_F3_d4.bmp,_F1_o4.bmp
ds006239_sub-1002,ds006239,sub-1002,ses-1,task-ReadPhon,acq-D2S0401,run-1,372.162,5.816,3,O+P-,1885,1,T3_stamp.bmp,T2_swamp.bmp
ds006239_sub-1002,ds006239,sub-1002,ses-1,task-ReadPhon,acq-D2S0401,run-1,377.978,4.799,3,O+P-,1573,1,T3_pint.bmp,T0_hint.bmp
ds006239_sub-1002,ds006239,sub-1002,ses-1,task-ReadPhon,acq-D2S0701,run-2,1.511,5.799,6,perceptual,841,1,_F3_f4.bmp,_F2_d4.bmp
ds006239_sub-1002,ds006239,sub-1002,ses-1,task-ReadPhon,acq-D2S0701,run-2,7.31,5.816,2,O-P+,1074,1,T3_fall.bmp,T1_crawl.bmp
ds006239_sub-1002,ds006239,sub-1002,ses-1,task-ReadPhon,acq-D2S0701,run-2,13.126,4.8,4,O-P-,1610,0,T3_gross.bmp,T1_post.bmp
ds006239_sub-1002,ds006239,sub-1002,ses-1,task-ReadPhon,acq-D2S0701,run-2,17.926,4.782,2,O-P+,1578,1,T3_tense.bmp,T0_fence.bmp
ds006239_sub-1002,ds006239,sub-1002,ses-1,task-ReadPhon,acq-D2S0701,run-2,22.708,5.3,2,O-P+,1180,1,T3_soup.bmp,T1_loop.bmp
ds006239_sub-1002,ds006239,sub-1002,ses-1,task-ReadPhon,acq-D2S0701,run-2,28.008,5.299,6,perceptual,984,1,_F3_e4.bmp,_F0_s4.bmp
ds006239_sub-1002,ds006239,sub-1002,ses-1,task-ReadPhon,acq-D2S0701,run-2,33.307,4.799,6,perceptual,973,1,_F3_b4.bmp,_F0_f4.bmp
ds006239_sub-1002,ds006239,sub-1002,ses-1,task-ReadPhon,acq-D2S0701,run-2,38.106,5.316,4,O-P-,1606,1,T3_pool.bmp,T2_tooth.bmp
ds006239_sub-1002,ds006239,sub-1002,ses-1,task-ReadPhon,acq-D2S0701,run-2,43.422,5.8,4,O-P-,2898,0,T3_both.bmp,T2_stroke.bmp
ds006239_sub-1002,ds006239,sub-1002,ses-1,task-ReadPhon,acq-D2S0701,run-2,49.222,4.799,1,O+P+,1131,1,T3_quart.bmp,T1_wart.bmp
ds006239_sub-1002,ds006239,sub-1002,ses-1,task-ReadPhon,acq-D2S0701,run-2,54.021,5.299,7,control,915,1,Gen/_Fix_Red.bmp,Gen/_Fix_Red.bmp
ds006239_sub-1002,ds006239,sub-1002,ses-1,task-ReadPhon,acq-D2S0701,run-2,59.32,5.316,5,perceptual,896,1,_F3_d4.bmp,_F0_d4.bmp
ds006239_sub-1002,ds006239,sub-1002,ses-1,task-ReadPhon,acq-D2S0701,run-2,64.636,5.816,5,perceptual,924,1,_F3_e4.bmp,_F2_e4.bmp
ds006239_sub-1002,ds006239,sub-1002,ses-1,task-ReadPhon,acq-D2S0701,run-2,70.452,4.8,3,O+P-,2532,1,T3_smooth.bmp,T0_tooth.bmp
ds006239_sub-1002,ds006239,sub-1002,ses-1,task-ReadPhon,acq-D2S0701,run-2,75.252,4.799,2,O-P+,1285,0,T3_stool.bmp,T1_rule.bmp
ds006239_sub-1002,ds006239,sub-1002,ses-1,task-ReadPhon,acq-D2S0701,run-2,80.051,5.299,8,control,1053,1,Gen/_Fix_Red.bmp,Gen/_Fix_Green.bmp
ds006239_sub-1002,ds006239,sub-1002,ses-1,task-ReadPhon,acq-D2S0701,run-2,85.35,5.3,4,O-P-,1194,1,T3_flight.bmp,T0_threat.bmp
ds006239_sub-1002,ds006239,sub-1002,ses-1,task-ReadPhon,acq-D2S0701,run-2,90.65,5.316,2,O-P+,942,1,T3_bluff.bmp,T2_tough.bmp
ds006239_sub-1002,ds006239,sub-1002,ses-1,task-ReadPhon,acq-D2S0701,run-2,95.966,5.799,6,perceptual,1467,1,_F3_s4.bmp,_F1_e4.bmp
ds006239_sub-1002,ds006239,sub-1002,ses-1,task-ReadPhon,acq-D2S0701,run-2,101.765,5.799,2,O-P+,1187,1,T3_halt.bmp,T0_fault.bmp
ds006239_sub-1002,ds006239,sub-1002,ses-1,task-ReadPhon,acq-D2S0701,run-2,107.564,4.799,4,O-P-,1300,1,T3_dried.bmp,T1_stood.bmp
ds006239_sub-1002,ds006239,sub-1002,ses-1,task-ReadPhon,acq-D2S0701,run-2,112.363,4.8,1,O+P+,1101,1,T3_brow.bmp,T2_cow.bmp
ds006239_sub-1002,ds006239,sub-1002,ses-1,task-ReadPhon,acq-D2S0701,run-2,117.163,5.816,1,O+P+,1045,1,T3_goat.bmp,T1_float.bmp
ds006239_sub-1002,ds006239,sub-1002,ses-1,task-ReadPhon,acq-D2S0701,run-2,122.979,4.799,1,O+P+,1077,1,T3_glide.bmp,T2_bride.bmp
ds006239_sub-1002,ds006239,sub-1002,ses-1,task-ReadPhon,acq-D2S0701,run-2,127.778,5.299,7,control,998,1,Gen/_Fix_Red.bmp,Gen/_Fix_Red.bmp
ds006239_sub-1002,ds006239,sub-1002,ses-1,task-ReadPhon,acq-D2S0701,run-2,133.077,4.8,8,control,899,1,Gen/_Fix_Red.bmp,Gen/_Fix_Green.bmp
ds006239_sub-1002,ds006239,sub-1002,ses-1,task-ReadPhon,acq-D2S0701,run-2,137.877,5.799,3,O+P-,1203,1,T3_plead.bmp,T2_spread.bmp
ds006239_sub-1002,ds006239,sub-1002,ses-1,task-ReadPhon,acq-D2S0701,run-2,143.676,4.816,5,perceptual,836,1,_F3_d6.bmp,_F1_d6.bmp
ds006239_sub-1002,ds006239,sub-1002,ses-1,task-ReadPhon,acq-D2S0701,run-2,148.492,5.283,2,O-P+,836,1,T3_roast.bmp,T2_ghost.bmp
ds006239_sub-1002,ds006239,sub-1002,ses-1,task-ReadPhon,acq-D2S0701,run-2,153.775,4.799,5,perceptual,913,1,_F3_e6.bmp,_F2_e6.bmp
ds006239_sub-1002,ds006239,sub-1002,ses-1,task-ReadPhon,acq-D2S0701,run-2,158.574,5.799,8,control,930,1,Gen/_Fix_Red.bmp,Gen/_Fix_Green.bmp
ds006239_sub-1002,ds006239,sub-1002,ses-1,task-ReadPhon,acq-D2S0701,run-2,164.373,5.8,2,O-P+,747,1,T3_odd.bmp,T0_rod.bmp
ds006239_sub-1002,ds006239,sub-1002,ses-1,task-ReadPhon,acq-D2S0701,run-2,170.173,5.316,1,O+P+,820,1,T3_spoon.bmp,T1_noon.bmp
ds006239_sub-1002,ds006239,sub-1002,ses-1,task-ReadPhon,acq-D2S0701,run-2,175.489,5.799,7,control,760,1,Gen/_Fix_Green.bmp,Gen/_Fix_Green.bmp
ds006239_sub-1002,ds006239,sub-1002,ses-1,task-ReadPhon,acq-D2S0701,run-2,181.288,4.799,7,control,736,1,Gen/_Fix_Green.bmp,Gen/_Fix_Green.bmp
ds006239_sub-1002,ds006239,sub-1002,ses-1,task-ReadPhon,acq-D2S0701,run-2,186.087,4.8,7,control,817,1,Gen/_Fix_Red.bmp,Gen/_Fix_Red.bmp
ds006239_sub-1002,ds006239,sub-1002,ses-1,task-ReadPhon,acq-D2S0701,run-2,190.887,5.816,8,control,938,1,Gen/_Fix_Green.bmp,Gen/_Fix_Red.bmp
ds006239_sub-1002,ds006239,sub-1002,ses-1,task-ReadPhon,acq-D2S0701,run-2,196.703,4.816,3,O+P-,2105,1,T3_breath.bmp,T0_wreath.bmp
ds006239_sub-1002,ds006239,sub-1002,ses-1,task-ReadPhon,acq-D2S0701,run-2,201.519,5.299,1,O+P+,1194,1,T3_neat.bmp,T2_wheat.bmp
ds006239_sub-1002,ds006239,sub-1002,ses-1,task-ReadPhon,acq-D2S0701,run-2,206.818,5.799,3,O+P-,3006,1,T3_mouth.bmp,T1_youth.bmp
ds006239_sub-1002,ds006239,sub-1002,ses-1,task-ReadPhon,acq-D2S0701,run-2,212.617,5.799,1,O+P+,886,1,T3_toss.bmp,T0_moss.bmp
ds006239_sub-1002,ds006239,sub-1002,ses-1,task-ReadPhon,acq-D2S0701,run-2,218.416,5.3,5,perceptual,840,1,_F3_f6.bmp,_F1_f6.bmp
ds006239_sub-1002,ds006239,sub-1002,ses-1,task-ReadPhon,acq-D2S0701,run-2,223.716,5.816,4,O-P-,1107,1,T3_rule.bmp,T0_blur.bmp
ds006239_sub-1002,ds006239,sub-1002,ses-1,task-ReadPhon,acq-D2S0701,run-2,229.532,5.299,3,O+P-,2859,0,T3_tomb.bmp,T2_comb.bmp
ds006239_sub-1002,ds006239,sub-1002,ses-1,task-ReadPhon,acq-D2S0701,run-2,234.831,5.799,5,perceptual,1273,1,_F3_o6.bmp,_F0_o6.bmp
ds006239_sub-1002,ds006239,sub-1002,ses-1,task-ReadPhon,acq-D2S0701,run-2,240.63,4.8,4,O-P-,1073,1,T3_june.bmp,T1_loop.bmp
ds006239_sub-1002,ds006239,sub-1002,ses-1,task-ReadPhon,acq-D2S0701,run-2,245.43,5.299,2,O-P+,1932,1,T3_warm.bmp,T2_form.bmp
ds006239_sub-1002,ds006239,sub-1002,ses-1,task-ReadPhon,acq-D2S0701,run-2,250.729,5.316,4,O-P-,1095,1,T3_rum.bmp,T2_touch.bmp
ds006239_sub-1002,ds006239,sub-1002,ses-1,task-ReadPhon,acq-D2S0701,run-2,256.045,4.799,3,O+P-,1418,1,T3_gross.bmp,T1_moss.bmp
ds006239_sub-1002,ds006239,sub-1002,ses-1,task-ReadPhon,acq-D2S0701,run-2,260.844,4.8,4,O-P-,1747,1,T3_glow.bmp,T0_stove.bmp
ds006239_sub-1002,ds006239,sub-1002,ses-1,task-ReadPhon,acq-D2S0701,run-2,265.644,5.799,4,O-P-,1347,1,T3_wheel.bmp,T2_sneak.bmp
ds006239_sub-1002,ds006239,sub-1002,ses-1,task-ReadPhon,acq-D2S0701,run-2,271.443,5.299,3,O+P-,1076,1,T3_cow.bmp,T0_glow.bmp
ds006239_sub-1002,ds006239,sub-1002,ses-1,task-ReadPhon,acq-D2S0701,run-2,276.742,5.316,1,O+P+,1073,1,T3_pile.bmp,T1_mile.bmp
ds006239_sub-1002,ds006239,sub-1002,ses-1,task-ReadPhon,acq-D2S0701,run-2,282.058,5.783,2,O-P+,829,1,T3_cheek.bmp,T1_sneak.bmp
ds006239_sub-1002,ds006239,sub-1002,ses-1,task-ReadPhon,acq-D2S0701,run-2,287.841,5.299,4,O-P-,1006,1,T3_youth.bmp,T0_hint.bmp
ds006239_sub-1002,ds006239,sub-1002,ses-1,task-ReadPhon,acq-D2S0701,run-2,293.14,4.799,2,O-P+,836,1,T3_thief.bmp,T0_beef.bmp
ds006239_sub-1002,ds006239,sub-1002,ses-1,task-ReadPhon,acq-D2S0701,run-2,297.939,5.316,8,control,868,1,Gen/_Fix_Green.bmp,Gen/_Fix_Red.bmp
ds006239_sub-1002,ds006239,sub-1002,ses-1,task-ReadPhon,acq-D2S0701,run-2,303.255,5.8,3,O+P-,1033,1,T3_swarm.bmp,T2_harm.bmp
ds006239_sub-1002,ds006239,sub-1002,ses-1,task-ReadPhon,acq-D2S0701,run-2,309.055,4.799,6,perceptual,721,1,_F3_o6.bmp,_F2_b6.bmp
ds006239_sub-1002,ds006239,sub-1002,ses-1,task-ReadPhon,acq-D2S0701,run-2,313.854,5.299,3,O+P-,1569,1,T3_both.bmp,T1_cloth.bmp
ds006239_sub-1002,ds006239,sub-1002,ses-1,task-ReadPhon,acq-D2S0701,run-2,319.153,4.8,8,control,655,1,Gen/_Fix_Green.bmp,Gen/_Fix_Red.bmp
ds006239_sub-1002,ds006239,sub-1002,ses-1,task-ReadPhon,acq-D2S0701,run-2,323.953,5.832,4,O-P-,1054,1,T3_cream.bmp,T1_swarm.bmp
ds006239_sub-1002,ds006239,sub-1002,ses-1,task-ReadPhon,acq-D2S0701,run-2,329.785,5.3,3,O+P-,2534,1,T3_ford.bmp,T0_word.bmp
ds006239_sub-1002,ds006239,sub-1002,ses-1,task-ReadPhon,acq-D2S0701,run-2,335.085,5.299,1,O+P+,1106,1,T3_vase.bmp,T2_chase.bmp
ds006239_sub-1002,ds006239,sub-1002,ses-1,task-ReadPhon,acq-D2S0701,run-2,340.384,5.299,6,perceptual,751,1,_F3_f6.bmp,_F1_d6.bmp
ds006239_sub-1002,ds006239,sub-1002,ses-1,task-ReadPhon,acq-D2S0701,run-2,345.683,5.8,1,O+P+,724,1,T3_flood.bmp,T0_blood.bmp
ds006239_sub-1002,ds006239,sub-1002,ses-1,task-ReadPhon,acq-D2S0701,run-2,351.483,4.816,2,O-P+,2998,0,T3_quart.bmp,T2_port.bmp
ds006239_sub-1002,ds006239,sub-1002,ses-1,task-ReadPhon,acq-D2S0701,run-2,356.299,4.799,3,O+P-,2845,1,T3_swap.bmp,T1_gap.bmp
ds006239_sub-1002,ds006239,sub-1002,ses-1,task-ReadPhon,acq-D2S0701,run-2,361.098,4.799,1,O+P+,1341,1,T3_frost.bmp,T0_cost.bmp
ds006239_sub-1002,ds006239,sub-1002,ses-1,task-ReadPhon,acq-D2S0701,run-2,365.897,5.8,1,O+P+,1150,1,T3_harm.bmp,T0_farm.bmp
ds006239_sub-1002,ds006239,sub-1002,ses-1,task-ReadPhon,acq-D2S0701,run-2,371.697,5.799,3,O+P-,1151,1,T3_scratch.bmp,T2_watch.bmp
ds006239_sub-1002,ds006239,sub-1002,ses-1,task-ReadPhon,acq-D2S0701,run-2,377.496,5.333,7,control,679,1,Gen/_Fix_Green.bmp,Gen/_Fix_Green.bmp
ds006239_sub-1076,ds006239,sub-1076,ses-1,task-ReadPhon,acq-D2S0301,run-1,1.491,4.8,3,O+P-,1189,0,T3_post.bmp,T1_cost.bmp
ds006239_sub-1076,ds006239,sub-1076,ses-1,task-ReadPhon,acq-D2S0301,run-1,6.291,5.316,5,perceptual,1174,1,_F3_o4.bmp,_F2_o4.bmp
ds006239_sub-1076,ds006239,sub-1076,ses-1,task-ReadPhon,acq-D2S0301,run-1,11.607,4.799,2,O-P+,1353,1,T3_rum.bmp,T1_numb.bmp
ds006239_sub-1076,ds006239,sub-1076,ses-1,task-ReadPhon,acq-D2S0301,run-1,16.406,5.799,7,control,1026,1,Gen/_Fix_Green.bmp,Gen/_Fix_Green.bmp
ds006239_sub-1076,ds006239,sub-1076,ses-1,task-ReadPhon,acq-D2S0301,run-1,22.205,4.8,6,perceptual,1203,1,_F3_s6.bmp,_F0_e6.bmp
ds006239_sub-1076,ds006239,sub-1076,ses-1,task-ReadPhon,acq-D2S0301,run-1,27.005,4.799,1,O+P+,1236,1,T3_fought.bmp,T1_sought.bmp
ds006239_sub-1076,ds006239,sub-1076,ses-1,task-ReadPhon,acq-D2S0301,run-1,31.804,4.799,1,O+P+,1156,1,T3_scheme.bmp,T2_theme.bmp
ds006239_sub-1076,ds006239,sub-1076,ses-1,task-ReadPhon,acq-D2S0301,run-1,36.603,4.833,5,perceptual,1109,1,_F3_f4.bmp,_F0_f4.bmp
ds006239_sub-1076,ds006239,sub-1076,ses-1,task-ReadPhon,acq-D2S0301,run-1,41.436,5.299,1,O+P+,1140,1,T3_stool.bmp,T0_fool.bmp
ds006239_sub-1076,ds006239,sub-1076,ses-1,task-ReadPhon,acq-D2S0301,run-1,46.735,5.3,1,O+P+,1113,1,T3_soak.bmp,T0_oak.bmp
ds006239_sub-1076,ds006239,sub-1076,ses-1,task-ReadPhon,acq-D2S0301,run-1,52.035,5.299,3,O+P-,1269,1,T3_threat.bmp,T1_wheat.bmp
ds006239_sub-1076,ds006239,sub-1076,ses-1,task-ReadPhon,acq-D2S0301,run-1,57.334,4.799,1,O+P+,1234,1,T3_thread.bmp,T0_spread.bmp
ds006239_sub-1076,ds006239,sub-1076,ses-1,task-ReadPhon,acq-D2S0301,run-1,62.133,5.816,2,O-P+,1203,0,T3_pile.bmp,T1_trial.bmp
ds006239_sub-1076,ds006239,sub-1076,ses-1,task-ReadPhon,acq-D2S0301,run-1,67.949,5.8,4,O-P-,1187,1,T3_swap.bmp,T2_watch.bmp
ds006239_sub-1076,ds006239,sub-1076,ses-1,task-ReadPhon,acq-D2S0301,run-1,73.749,5.799,8,control,1276,1,Gen/_Fix_Green.bmp,Gen/_Fix_Red.bmp
ds006239_sub-1076,ds006239,sub-1076,ses-1,task-ReadPhon,acq-D2S0301,run-1,79.548,5.299,4,O-P-,1204,1,T3_tough.bmp,T1_dull.bmp
ds006239_sub-1076,ds006239,sub-1076,ses-1,task-ReadPhon,acq-D2S0301,run-1,84.847,5.799,6,perceptual,1209,1,_F3_o4.bmp,_F2_b4.bmp
ds006239_sub-1076,ds006239,sub-1076,ses-1,task-ReadPhon,acq-D2S0301,run-1,90.646,5.816,1,O+P+,1146,1,T3_sweep.bmp,T0_creep.bmp
ds006239_sub-1076,ds006239,sub-1076,ses-1,task-ReadPhon,acq-D2S0301,run-1,96.462,5.8,6,perceptual,986,1,_F3_d6.bmp,_F1_o6.bmp
ds006239_sub-1076,ds006239,sub-1076,ses-1,task-ReadPhon,acq-D2S0301,run-1,102.262,4.799,8,control,1427,1,Gen/_Fix_Green.bmp,Gen/_Fix_Red.bmp
ds006239_sub-1076,ds006239,sub-1076,ses-1,task-ReadPhon,acq-D2S0301,run-1,107.061,4.799,2,O-P+,1171,1,T3_stroke.bmp,T1_soak.bmp
ds006239_sub-1076,ds006239,sub-1076,ses-1,task-ReadPhon,acq-D2S0301,run-1,111.86,5.3,4,O-P-,996,1,T3_trial.bmp,T0_fall.bmp
ds006239_sub-1076,ds006239,sub-1076,ses-1,task-ReadPhon,acq-D2S0301,run-1,117.16,5.799,5,perceptual,1121,1,_F3_s6.bmp,_F0_s6.bmp
ds006239_sub-1076,ds006239,sub-1076,ses-1,task-ReadPhon,acq-D2S0301,run-1,122.959,4.799,7,control,1185,1,Gen/_Fix_Green.bmp,Gen/_Fix_Green.bmp
ds006239_sub-1076,ds006239,sub-1076,ses-1,task-ReadPhon,acq-D2S0301,run-1,127.758,4.8,8,control,1194,1,Gen/_Fix_Red.bmp,Gen/_Fix_Green.bmp
ds006239_sub-1076,ds006239,sub-1076,ses-1,task-ReadPhon,acq-D2S0301,run-1,132.558,5.299,7,control,1147,1,Gen/_Fix_Red.bmp,Gen/_Fix_Red.bmp
ds006239_sub-1076,ds006239,sub-1076,ses-1,task-ReadPhon,acq-D2S0301,run-1,137.857,4.799,1,O+P+,1151,1,T3_beef.bmp,T1_reef.bmp
ds006239_sub-1076,ds006239,sub-1076,ses-1,task-ReadPhon,acq-D2S0301,run-1,142.656,5.799,3,O+P-,1216,1,T3_wart.bmp,T1_smart.bmp
ds006239_sub-1076,ds006239,sub-1076,ses-1,task-ReadPhon,acq-D2S0301,run-1,148.455,5.816,3,O+P-,1121,0,T3_dose.bmp,T0_pose.bmp
ds006239_sub-1076,ds006239,sub-1076,ses-1,task-ReadPhon,acq-D2S0301,run-1,154.271,4.8,3,O+P-,1353,1,T3_touch.bmp,T1_couch.bmp
ds006239_sub-1076,ds006239,sub-1076,ses-1,task-ReadPhon,acq-D2S0301,run-1,159.071,4.799,6,perceptual,1193,1,_F3_e6.bmp,_F0_s6.bmp
ds006239_sub-1076,ds006239,sub-1076,ses-1,task-ReadPhon,acq-D2S0301,run-1,163.87,5.816,8,control,1194,1,Gen/_Fix_Green.bmp,Gen/_Fix_Red.bmp
ds006239_sub-1076,ds006239,sub-1076,ses-1,task-ReadPhon,acq-D2S0301,run-1,169.686,5.799,7,control,1130,1,Gen/_Fix_Green.bmp,Gen/_Fix_Green.bmp
ds006239_sub-1076,ds006239,sub-1076,ses-1,task-ReadPhon,acq-D2S0301,run-1,175.485,5.316,8,control,1227,1,Gen/_Fix_Red.bmp,Gen/_Fix_Green.bmp
ds006239_sub-1076,ds006239,sub-1076,ses-1,task-ReadPhon,acq-D2S0301,run-1,180.801,4.8,7,control,1103,1,Gen/_Fix_Red.bmp,Gen/_Fix_Red.bmp
ds006239_sub-1076,ds006239,sub-1076,ses-1,task-ReadPhon,acq-D2S0301,run-1,185.601,5.299,4,O-P-,1095,1,T3_port.bmp,T1_warm.bmp
ds006239_sub-1076,ds006239,sub-1076,ses-1,task-ReadPhon,acq-D2S0301,run-1,190.9,5.799,2,O-P+,1348,1,T3_june.bmp,T2_noon.bmp
ds006239_sub-1076,ds006239,sub-1076,ses-1,task-ReadPhon,acq-D2S0301,run-1,196.699,4.8,4,O-P-,3414,1,T3_wreath.bmp,T0_leap.bmp
ds006239_sub-1076,ds006239,sub-1076,ses-1,task-ReadPhon,acq-D2S0301,run-1,201.499,4.799,5,perceptual,973,1,_F3_b6.bmp,_F2_b6.bmp
ds006239_sub-1076,ds006239,sub-1076,ses-1,task-ReadPhon,acq-D2S0301,run-1,206.298,5.316,3,O+P-,1350,1,T3_glove.bmp,T0_stove.bmp
ds006239_sub-1076,ds006239,sub-1076,ses-1,task-ReadPhon,acq-D2S0301,run-1,211.614,5.799,1,O+P+,1146,1,T3_numb.bmp,T1_crumb.bmp
ds006239_sub-1076,ds006239,sub-1076,ses-1,task-ReadPhon,acq-D2S0301,run-1,217.413,4.8,3,O+P-,1811,1,T3_stood.bmp,T2_flood.bmp
ds006239_sub-1076,ds006239,sub-1076,ses-1,task-ReadPhon,acq-D2S0301,run-1,222.213,5.299,5,perceptual,1316,1,_F3_s4.bmp,_F1_s4.bmp
ds006239_sub-1076,ds006239,sub-1076,ses-1,task-ReadPhon,acq-D2S0301,run-1,227.512,5.799,4,O-P-,1296,1,T3_smart.bmp,T1_drought.bmp
ds006239_sub-1076,ds006239,sub-1076,ses-1,task-ReadPhon,acq-D2S0301,run-1,233.311,5.3,2,O-P+,1153,1,T3_stir.bmp,T2_blur.bmp
ds006239_sub-1076,ds006239,sub-1076,ses-1,task-ReadPhon,acq-D2S0301,run-1,238.611,5.315,8,control,1174,1,Gen/_Fix_Red.bmp,Gen/_Fix_Green.bmp
ds006239_sub-1076,ds006239,sub-1076,ses-1,task-ReadPhon,acq-D2S0301,run-1,243.926,5.3,7,control,1210,1,Gen/_Fix_Red.bmp,Gen/_Fix_Red.bmp
ds006239_sub-1076,ds006239,sub-1076,ses-1,task-ReadPhon,acq-D2S0301,run-1,249.226,5.799,3,O+P-,3798,0,T3_pool.bmp,T0_wool.bmp
ds006239_sub-1076,ds006239,sub-1076,ses-1,task-ReadPhon,acq-D2S0301,run-1,255.025,5.283,3,O+P-,1695,1,T3_fought.bmp,T2_drought.bmp
ds006239_sub-1076,ds006239,sub-1076,ses-1,task-ReadPhon,acq-D2S0301,run-1,260.308,4.799,2,O-P+,1077,1,T3_flight.bmp,T1_spite.bmp
ds006239_sub-1076,ds006239,sub-1076,ses-1,task-ReadPhon,acq-D2S0301,run-1,265.107,5.299,2,O-P+,1189,1,T3_scheme.bmp,T0_cream.bmp
ds006239_sub-1076,ds006239,sub-1076,ses-1,task-ReadPhon,acq-D2S0301,run-1,270.406,5.316,6,perceptual,1170,1,_F3_b6.bmp,_F2_f6.bmp
ds006239_sub-1076,ds006239,sub-1076,ses-1,task-ReadPhon,acq-D2S0301,run-1,275.722,5.8,4,O-P-,1358,1,T3_ghost.bmp,T0_pose.bmp
ds006239_sub-1076,ds006239,sub-1076,ses-1,task-ReadPhon,acq-D2S0301,run-1,281.522,4.799,4,O-P-,1119,1,T3_grace.bmp,T1_fence.bmp
ds006239_sub-1076,ds006239,sub-1076,ses-1,task-ReadPhon,acq-D2S0301,run-1,286.321,4.799,3,O+P-,1119,0,T3_dull.bmp,T2_bull.bmp
ds006239_sub-1076,ds006239,sub-1076,ses-1,task-ReadPhon,acq-D2S0301,run-1,291.12,4.8,4,O-P-,1560,1,T3_ford.bmp,T2_rod.bmp
ds006239_sub-1076,ds006239,sub-1076,ses-1,task-ReadPhon,acq-D2S0301,run-1,295.92,5.332,1,O+P+,1184,1,T3_strap.bmp,T2_gap.bmp
ds006239_sub-1076,ds006239,sub-1076,ses-1,task-ReadPhon,acq-D2S0301,run-1,301.252,5.3,4,O-P-,1068,1,T3_stamp.bmp,T2_tomb.bmp
ds006239_sub-1076,ds006239,sub-1076,ses-1,task-ReadPhon,acq-D2S0301,run-1,306.552,5.299,2,O-P+,1560,1,T3_wheel.bmp,T0_deal.bmp
ds006239_sub-1076,ds006239,sub-1076,ses-1,task-ReadPhon,acq-D2S0301,run-1,311.851,5.299,2,O-P+,1269,1,T3_leap.bmp,T2_sweep.bmp
ds006239_sub-1076,ds006239,sub-1076,ses-1,task-ReadPhon,acq-D2S0301,run-1,317.15,4.8,4,O-P-,1186,1,T3_fault.bmp,T2_note.bmp
ds006239_sub-1076,ds006239,sub-1076,ses-1,task-ReadPhon,acq-D2S0301,run-1,321.95,5.799,1,O+P+,986,1,T3_bull.bmp,T2_full.bmp
ds006239_sub-1076,ds006239,sub-1076,ses-1,task-ReadPhon,acq-D2S0301,run-1,327.749,5.816,2,O-P+,1075,1,T3_chase.bmp,T2_grace.bmp
ds006239_sub-1076,ds006239,sub-1076,ses-1,task-ReadPhon,acq-D2S0301,run-1,333.565,4.799,2,O-P+,1939,1,T3_float.bmp,T0_note.bmp
ds006239_sub-1076,ds006239,sub-1076,ses-1,task-ReadPhon,acq-D2S0301,run-1,338.364,5.799,2,O-P+,1108,1,T3_bride.bmp,T0_dried.bmp
ds006239_sub-1076,ds006239,sub-1076,ses-1,task-ReadPhon,acq-D2S0301,run-1,344.163,5.8,4,O-P-,1165,1,T3_thief.bmp,T0_plead.bmp
ds006239_sub-1076,ds006239,sub-1076,ses-1,task-ReadPhon,acq-D2S0301,run-1,349.963,5.299,1,O+P+,1157,1,T3_bluff.bmp,T2_puff.bmp
ds006239_sub-1076,ds006239,sub-1076,ses-1,task-ReadPhon,acq-D2S0301,run-1,355.262,5.816,5,perceptual,1154,1,_F3_b4.bmp,_F1_b4.bmp
ds006239_sub-1076,ds006239,sub-1076,ses-1,task-ReadPhon,acq-D2S0301,run-1,361.078,5.799,1,O+P+,1178,1,T3_shove.bmp,T1_glove.bmp
ds006239_sub-1076,ds006239,sub-1076,ses-1,task-ReadPhon,acq-D2S0301,run-1,366.877,5.299,6,perceptual,1099,1,_F3_d4.bmp,_F1_o4.bmp
ds006239_sub-1076,ds006239,sub-1076,ses-1,task-ReadPhon,acq-D2S0301,run-1,372.176,5.8,3,O+P-,1352,1,T3_stamp.bmp,T2_swamp.bmp
ds006239_sub-1076,ds006239,sub-1076,ses-1,task-ReadPhon,acq-D2S0301,run-1,377.976,4.832,3,O+P-,1256,0,T3_pint.bmp,T0_hint.bmp
ds006239_sub-1076,ds006239,sub-1076,ses-1,task-ReadPhon,acq-D2S0401,run-2,1.51,5.8,6,perceptual,994,1,_F3_f4.bmp,_F2_d4.bmp
ds006239_sub-1076,ds006239,sub-1076,ses-1,task-ReadPhon,acq-D2S0401,run-2,7.31,5.816,2,O-P+,1107,1,T3_fall.bmp,T1_crawl.bmp
ds006239_sub-1076,ds006239,sub-1076,ses-1,task-ReadPhon,acq-D2S0401,run-2,13.126,4.799,4,O-P-,1091,0,T3_gross.bmp,T1_post.bmp
ds006239_sub-1076,ds006239,sub-1076,ses-1,task-ReadPhon,acq-D2S0401,run-2,17.925,4.799,2,O-P+,1018,1,T3_tense.bmp,T0_fence.bmp
ds006239_sub-1076,ds006239,sub-1076,ses-1,task-ReadPhon,acq-D2S0401,run-2,22.724,5.3,2,O-P+,1211,1,T3_soup.bmp,T1_loop.bmp
ds006239_sub-1076,ds006239,sub-1076,ses-1,task-ReadPhon,acq-D2S0401,run-2,28.024,5.299,6,perceptual,1224,1,_F3_e4.bmp,_F0_s4.bmp
ds006239_sub-1076,ds006239,sub-1076,ses-1,task-ReadPhon,acq-D2S0401,run-2,33.323,4.782,6,perceptual,972,1,_F3_b4.bmp,_F0_f4.bmp
ds006239_sub-1076,ds006239,sub-1076,ses-1,task-ReadPhon,acq-D2S0401,run-2,38.105,5.316,4,O-P-,1134,0,T3_pool.bmp,T2_tooth.bmp
ds006239_sub-1076,ds006239,sub-1076,ses-1,task-ReadPhon,acq-D2S0401,run-2,43.421,5.8,4,O-P-,2251,1,T3_both.bmp,T2_stroke.bmp
ds006239_sub-1076,ds006239,sub-1076,ses-1,task-ReadPhon,acq-D2S0401,run-2,49.221,4.799,1,O+P+,1170,1,T3_quart.bmp,T1_wart.bmp
ds006239_sub-1076,ds006239,sub-1076,ses-1,task-ReadPhon,acq-D2S0401,run-2,54.02,5.299,7,control,1291,1,Gen/_Fix_Red.bmp,Gen/_Fix_Red.bmp
ds006239_sub-1076,ds006239,sub-1076,ses-1,task-ReadPhon,acq-D2S0401,run-2,59.319,5.316,5,perceptual,1120,1,_F3_d4.bmp,_F0_d4.bmp
ds006239_sub-1076,ds006239,sub-1076,ses-1,task-ReadPhon,acq-D2S0401,run-2,64.635,5.8,5,perceptual,1197,1,_F3_e4.bmp,_F2_e4.bmp
ds006239_sub-1076,ds006239,sub-1076,ses-1,task-ReadPhon,acq-D2S0401,run-2,70.435,4.799,3,O+P-,3694,1,T3_smooth.bmp,T0_tooth.bmp
ds006239_sub-1076,ds006239,sub-1076,ses-1,task-ReadPhon,acq-D2S0401,run-2,75.234,4.799,2,O-P+,2326,1,T3_stool.bmp,T1_rule.bmp
ds006239_sub-1076,ds006239,sub-1076,ses-1,task-ReadPhon,acq-D2S0401,run-2,80.033,5.316,8,control,1287,1,Gen/_Fix_Red.bmp,Gen/_Fix_Green.bmp
ds006239_sub-1076,ds006239,sub-1076,ses-1,task-ReadPhon,acq-D2S0401,run-2,85.349,5.3,4,O-P-,1306,0,T3_flight.bmp,T0_threat.bmp
ds006239_sub-1076,ds006239,sub-1076,ses-1,task-ReadPhon,acq-D2S0401,run-2,90.649,5.316,2,O-P+,1230,1,T3_bluff.bmp,T2_tough.bmp
ds006239_sub-1076,ds006239,sub-1076,ses-1,task-ReadPhon,acq-D2S0401,run-2,95.965,5.799,6,perceptual,1250,1,_F3_s4.bmp,_F1_e4.bmp
ds006239_sub-1076,ds006239,sub-1076,ses-1,task-ReadPhon,acq-D2S0401,run-2,101.764,5.799,2,O-P+,1603,1,T3_halt.bmp,T0_fault.bmp
ds006239_sub-1076,ds006239,sub-1076,ses-1,task-ReadPhon,acq-D2S0401,run-2,107.563,4.8,4,O-P-,1180,1,T3_dried.bmp,T1_stood.bmp
ds006239_sub-1076,ds006239,sub-1076,ses-1,task-ReadPhon,acq-D2S0401,run-2,112.363,4.799,1,O+P+,1365,0,T3_brow.bmp,T2_cow.bmp
ds006239_sub-1076,ds006239,sub-1076,ses-1,task-ReadPhon,acq-D2S0401,run-2,117.162,5.816,1,O+P+,1261,1,T3_goat.bmp,T1_float.bmp
ds006239_sub-1076,ds006239,sub-1076,ses-1,task-ReadPhon,acq-D2S0401,run-2,122.978,4.799,1,O+P+,1421,1,T3_glide.bmp,T2_bride.bmp
ds006239_sub-1076,ds006239,sub-1076,ses-1,task-ReadPhon,acq-D2S0401,run-2,127.777,5.3,7,control,1262,1,Gen/_Fix_Red.bmp,Gen/_Fix_Red.bmp
ds006239_sub-1076,ds006239,sub-1076,ses-1,task-ReadPhon,acq-D2S0401,run-2,133.077,4.799,8,control,1467,1,Gen/_Fix_Red.bmp,Gen/_Fix_Green.bmp
ds006239_sub-1076,ds006239,sub-1076,ses-1,task-ReadPhon,acq-D2S0401,run-2,137.876,5.799,3,O+P-,1483,0,T3_plead.bmp,T2_spread.bmp
ds006239_sub-1076,ds006239,sub-1076,ses-1,task-ReadPhon,acq-D2S0401,run-2,143.675,4.816,5,perceptual,516,1,_F3_d6.bmp,_F1_d6.bmp
ds006239_sub-1076,ds006239,sub-1076,ses-1,task-ReadPhon,acq-D2S0401,run-2,148.491,5.3,2,O-P+,1116,1,T3_roast.bmp,T2_ghost.bmp
ds006239_sub-1076,ds006239,sub-1076,ses-1,task-ReadPhon,acq-D2S0401,run-2,153.791,4.799,5,perceptual,913,1,_F3_e6.bmp,_F2_e6.bmp
ds006239_sub-1076,ds006239,sub-1076,ses-1,task-ReadPhon,acq-D2S0401,run-2,158.59,5.799,8,control,897,1,Gen/_Fix_Red.bmp,Gen/_Fix_Green.bmp
ds006239_sub-1076,ds006239,sub-1076,ses-1,task-ReadPhon,acq-D2S0401,run-2,164.389,5.783,2,O-P+,1130,1,T3_odd.bmp,T0_rod.bmp
ds006239_sub-1076,ds006239,sub-1076,ses-1,task-ReadPhon,acq-D2S0401,run-2,170.172,5.316,1,O+P+,1211,1,T3_spoon.bmp,T1_noon.bmp
ds006239_sub-1076,ds006239,sub-1076,ses-1,task-ReadPhon,acq-D2S0401,run-2,175.488,5.799,7,control,1199,1,Gen/_Fix_Green.bmp,Gen/_Fix_Green.bmp
ds006239_sub-1076,ds006239,sub-1076,ses-1,task-ReadPhon,acq-D2S0401,run-2,181.287,4.799,7,control,1328,1,Gen/_Fix_Green.bmp,Gen/_Fix_Green.bmp
ds006239_sub-1076,ds006239,sub-1076,ses-1,task-ReadPhon,acq-D2S0401,run-2,186.086,4.8,7,control,1185,1,Gen/_Fix_Red.bmp,Gen/_Fix_Red.bmp
ds006239_sub-1076,ds006239,sub-1076,ses-1,task-ReadPhon,acq-D2S0401,run-2,190.886,5.799,8,control,1289,1,Gen/_Fix_Green.bmp,Gen/_Fix_Red.bmp
ds006239_sub-1076,ds006239,sub-1076,ses-1,task-ReadPhon,acq-D2S0401,run-2,196.685,4.816,3,O+P-,1386,0,T3_breath.bmp,T0_wreath.bmp
ds006239_sub-1076,ds006239,sub-1076,ses-1,task-ReadPhon,acq-D2S0401,run-2,201.501,5.299,1,O+P+,1746,1,T3_neat.bmp,T2_wheat.bmp
ds006239_sub-1076,ds006239,sub-1076,ses-1,task-ReadPhon,acq-D2S0401,run-2,206.8,5.816,3,O+P-,1359,1,T3_mouth.bmp,T1_youth.bmp
ds006239_sub-1076,ds006239,sub-1076,ses-1,task-ReadPhon,acq-D2S0401,run-2,212.616,5.799,1,O+P+,1191,1,T3_toss.bmp,T0_moss.bmp
ds006239_sub-1076,ds006239,sub-1076,ses-1,task-ReadPhon,acq-D2S0401,run-2,218.415,5.3,5,perceptual,1104,1,_F3_f6.bmp,_F1_f6.bmp
ds006239_sub-1076,ds006239,sub-1076,ses-1,task-ReadPhon,acq-D2S0401,run-2,223.715,5.816,4,O-P-,1140,1,T3_rule.bmp,T0_blur.bmp
ds006239_sub-1076,ds006239,sub-1076,ses-1,task-ReadPhon,acq-D2S0401,run-2,229.531,5.299,3,O+P-,1700,1,T3_tomb.bmp,T2_comb.bmp
ds006239_sub-1076,ds006239,sub-1076,ses-1,task-ReadPhon,acq-D2S0401,run-2,234.83,5.799,5,perceptual,777,1,_F3_o6.bmp,_F0_o6.bmp
ds006239_sub-1076,ds006239,sub-1076,ses-1,task-ReadPhon,acq-D2S0401,run-2,240.629,4.8,4,O-P-,1842,1,T3_june.bmp,T1_loop.bmp
ds006239_sub-1076,ds006239,sub-1076,ses-1,task-ReadPhon,acq-D2S0401,run-2,245.429,5.316,2,O-P+,2778,0,T3_warm.bmp,T2_form.bmp
ds006239_sub-1076,ds006239,sub-1076,ses-1,task-ReadPhon,acq-D2S0401,run-2,250.745,5.299,4,O-P-,1134,1,T3_rum.bmp,T2_touch.bmp
ds006239_sub-1076,ds006239,sub-1076,ses-1,task-ReadPhon,acq-D2S0401,run-2,256.044,4.799,3,O+P-,1075,1,T3_gross.bmp,T1_moss.bmp
ds006239_sub-1076,ds006239,sub-1076,ses-1,task-ReadPhon,acq-D2S0401,run-2,260.843,4.8,4,O-P-,980,0,T3_glow.bmp,T0_stove.bmp
ds006239_sub-1076,ds006239,sub-1076,ses-1,task-ReadPhon,acq-D2S0401,run-2,265.643,5.799,4,O-P-,1260,1,T3_wheel.bmp,T2_sneak.bmp
ds006239_sub-1076,ds006239,sub-1076,ses-1,task-ReadPhon,acq-D2S0401,run-2,271.442,5.316,3,O+P-,1189,1,T3_cow.bmp,T0_glow.bmp
ds006239_sub-1076,ds006239,sub-1076,ses-1,task-ReadPhon,acq-D2S0401,run-2,276.758,5.299,1,O+P+,1377,1,T3_pile.bmp,T1_mile.bmp
ds006239_sub-1076,ds006239,sub-1076,ses-1,task-ReadPhon,acq-D2S0401,run-2,282.057,5.799,2,O-P+,1742,1,T3_cheek.bmp,T1_sneak.bmp
ds006239_sub-1076,ds006239,sub-1076,ses-1,task-ReadPhon,acq-D2S0401,run-2,287.856,5.3,4,O-P-,1255,1,T3_youth.bmp,T0_hint.bmp
ds006239_sub-1076,ds006239,sub-1076,ses-1,task-ReadPhon,acq-D2S0401,run-2,293.156,4.782,2,O-P+,1187,1,T3_thief.bmp,T0_beef.bmp
ds006239_sub-1076,ds006239,sub-1076,ses-1,task-ReadPhon,acq-D2S0401,run-2,297.938,5.316,8,control,1285,1,Gen/_Fix_Green.bmp,Gen/_Fix_Red.bmp
ds006239_sub-1076,ds006239,sub-1076,ses-1,task-ReadPhon,acq-D2S0401,run-2,303.254,5.8,3,O+P-,1281,1,T3_swarm.bmp,T2_harm.bmp
ds006239_sub-1076,ds006239,sub-1076,ses-1,task-ReadPhon,acq-D2S0401,run-2,309.054,4.799,6,perceptual,1297,1,_F3_o6.bmp,_F2_b6.bmp
ds006239_sub-1076,ds006239,sub-1076,ses-1,task-ReadPhon,acq-D2S0401,run-2,313.853,5.299,3,O+P-,1618,0,T3_both.bmp,T1_cloth.bmp
ds006239_sub-1076,ds006239,sub-1076,ses-1,task-ReadPhon,acq-D2S0401,run-2,319.152,4.8,8,control,1311,1,Gen/_Fix_Green.bmp,Gen/_Fix_Red.bmp
ds006239_sub-1076,ds006239,sub-1076,ses-1,task-ReadPhon,acq-D2S0401,run-2,323.952,5.816,4,O-P-,1191,1,T3_cream.bmp,T1_swarm.bmp
ds006239_sub-1076,ds006239,sub-1076,ses-1,task-ReadPhon,acq-D2S0401,run-2,329.768,5.299,3,O+P-,1111,0,T3_ford.bmp,T0_word.bmp
ds006239_sub-1076,ds006239,sub-1076,ses-1,task-ReadPhon,acq-D2S0401,run-2,335.067,5.299,1,O+P+,1236,1,T3_vase.bmp,T2_chase.bmp
ds006239_sub-1076,ds006239,sub-1076,ses-1,task-ReadPhon,acq-D2S0401,run-2,340.366,5.316,6,perceptual,1345,1,_F3_f6.bmp,_F1_d6.bmp
ds006239_sub-1076,ds006239,sub-1076,ses-1,task-ReadPhon,acq-D2S0401,run-2,345.682,5.8,1,O+P+,1221,0,T3_flood.bmp,T0_blood.bmp
ds006239_sub-1076,ds006239,sub-1076,ses-1,task-ReadPhon,acq-D2S0401,run-2,351.482,4.816,2,O-P+,1086,1,T3_quart.bmp,T2_port.bmp
ds006239_sub-1076,ds006239,sub-1076,ses-1,task-ReadPhon,acq-D2S0401,run-2,356.298,4.799,3,O+P-,1214,1,T3_swap.bmp,T1_gap.bmp
ds006239_sub-1076,ds006239,sub-1076,ses-1,task-ReadPhon,acq-D2S0401,run-2,361.097,4.799,1,O+P+,2134,0,T3_frost.bmp,T0_cost.bmp
ds006239_sub-1076,ds006239,sub-1076,ses-1,task-ReadPhon,acq-D2S0401,run-2,365.896,5.8,1,O+P+,1031,1,T3_harm.bmp,T0_farm.bmp
ds006239_sub-1076,ds006239,sub-1076,ses-1,task-ReadPhon,acq-D2S0401,run-2,371.696,5.799,3,O+P-,1336,1,T3_scratch.bmp,T2_watch.bmp
ds006239_sub-1076,ds006239,sub-1076,ses-1,task-ReadPhon,acq-D2S0401,run-2,377.495,5.349,7,control,1360,1,Gen/_Fix_Green.bmp,Gen/_Fix_Green.bmp
ds006239_sub-1077,ds006239,sub-1077,ses-1,task-ReadPhon,acq-D2S0201,run-1,1.492,4.799,3,O+P-,1196,0,T3_post.bmp,T1_cost.bmp
ds006239_sub-1077,ds006239,sub-1077,ses-1,task-ReadPhon,acq-D2S0201,run-1,6.291,5.316,5,perceptual,1189,1,_F3_o4.bmp,_F2_o4.bmp
ds006239_sub-1077,ds006239,sub-1077,ses-1,task-ReadPhon,acq-D2S0201,run-1,11.607,4.8,2,O-P+,1441,1,T3_rum.bmp,T1_numb.bmp
ds006239_sub-1077,ds006239,sub-1077,ses-1,task-ReadPhon,acq-D2S0201,run-1,16.407,5.799,7,control,1241,1,Gen/_Fix_Green.bmp,Gen/_Fix_Green.bmp
ds006239_sub-1077,ds006239,sub-1077,ses-1,task-ReadPhon,acq-D2S0201,run-1,22.206,4.816,6,perceptual,1393,1,_F3_s6.bmp,_F0_e6.bmp
ds006239_sub-1077,ds006239,sub-1077,ses-1,task-ReadPhon,acq-D2S0201,run-1,27.022,4.799,1,O+P+,1290,1,T3_fought.bmp,T1_sought.bmp
ds006239_sub-1077,ds006239,sub-1077,ses-1,task-ReadPhon,acq-D2S0201,run-1,31.821,4.8,1,O+P+,1347,1,T3_scheme.bmp,T2_theme.bmp
ds006239_sub-1077,ds006239,sub-1077,ses-1,task-ReadPhon,acq-D2S0201,run-1,36.621,4.816,5,perceptual,1379,1,_F3_f4.bmp,_F0_f4.bmp
ds006239_sub-1077,ds006239,sub-1077,ses-1,task-ReadPhon,acq-D2S0201,run-1,41.437,5.299,1,O+P+,1211,1,T3_stool.bmp,T0_fool.bmp
ds006239_sub-1077,ds006239,sub-1077,ses-1,task-ReadPhon,acq-D2S0201,run-1,46.736,5.3,1,O+P+,1408,1,T3_soak.bmp,T0_oak.bmp
ds006239_sub-1077,ds006239,sub-1077,ses-1,task-ReadPhon,acq-D2S0201,run-1,52.036,5.299,3,O+P-,1997,1,T3_threat.bmp,T1_wheat.bmp
ds006239_sub-1077,ds006239,sub-1077,ses-1,task-ReadPhon,acq-D2S0201,run-1,57.335,4.799,1,O+P+,1393,1,T3_thread.bmp,T0_spread.bmp
ds006239_sub-1077,ds006239,sub-1077,ses-1,task-ReadPhon,acq-D2S0201,run-1,62.134,5.799,2,O-P+,1290,1,T3_pile.bmp,T1_trial.bmp
ds006239_sub-1077,ds006239,sub-1077,ses-1,task-ReadPhon,acq-D2S0201,run-1,67.933,5.816,4,O-P-,1243,1,T3_swap.bmp,T2_watch.bmp
ds006239_sub-1077,ds006239,sub-1077,ses-1,task-ReadPhon,acq-D2S0201,run-1,73.749,5.8,8,control,1555,1,Gen/_Fix_Green.bmp,Gen/_Fix_Red.bmp
ds006239_sub-1077,ds006239,sub-1077,ses-1,task-ReadPhon,acq-D2S0201,run-1,79.549,5.299,4,O-P-,1764,1,T3_tough.bmp,T1_dull.bmp
ds006239_sub-1077,ds006239,sub-1077,ses-1,task-ReadPhon,acq-D2S0201,run-1,84.848,5.799,6,perceptual,1440,1,_F3_o4.bmp,_F2_b4.bmp
ds006239_sub-1077,ds006239,sub-1077,ses-1,task-ReadPhon,acq-D2S0201,run-1,90.647,5.816,1,O+P+,1377,1,T3_sweep.bmp,T0_creep.bmp
ds006239_sub-1077,ds006239,sub-1077,ses-1,task-ReadPhon,acq-D2S0201,run-1,96.463,5.799,6,perceptual,1449,1,_F3_d6.bmp,_F1_o6.bmp
ds006239_sub-1077,ds006239,sub-1077,ses-1,task-ReadPhon,acq-D2S0201,run-1,102.262,4.8,8,control,1610,1,Gen/_Fix_Green.bmp,Gen/_Fix_Red.bmp
ds006239_sub-1077,ds006239,sub-1077,ses-1,task-ReadPhon,acq-D2S0201,run-1,107.062,4.782,2,O-P+,2090,0,T3_stroke.bmp,T1_soak.bmp
ds006239_sub-1077,ds006239,sub-1077,ses-1,task-ReadPhon,acq-D2S0201,run-1,111.844,5.3,4,O-P-,1268,1,T3_trial.bmp,T0_fall.bmp
ds006239_sub-1077,ds006239,sub-1077,ses-1,task-ReadPhon,acq-D2S0201,run-1,117.144,5.799,5,perceptual,1592,1,_F3_s6.bmp,_F0_s6.bmp
ds006239_sub-1077,ds006239,sub-1077,ses-1,task-ReadPhon,acq-D2S0201,run-1,122.943,4.816,7,control,1585,1,Gen/_Fix_Green.bmp,Gen/_Fix_Green.bmp
ds006239_sub-1077,ds006239,sub-1077,ses-1,task-ReadPhon,acq-D2S0201,run-1,127.759,4.799,8,control,1569,1,Gen/_Fix_Red.bmp,Gen/_Fix_Green.bmp
ds006239_sub-1077,ds006239,sub-1077,ses-1,task-ReadPhon,acq-D2S0201,run-1,132.558,5.3,7,control,1498,1,Gen/_Fix_Red.bmp,Gen/_Fix_Red.bmp
ds006239_sub-1077,ds006239,sub-1077,ses-1,task-ReadPhon,acq-D2S0201,run-1,137.858,4.799,1,O+P+,1495,1,T3_beef.bmp,T1_reef.bmp
ds006239_sub-1077,ds006239,sub-1077,ses-1,task-ReadPhon,acq-D2S0201,run-1,142.657,5.799,3,O+P-,1359,0,T3_wart.bmp,T1_smart.bmp
ds006239_sub-1077,ds006239,sub-1077,ses-1,task-ReadPhon,acq-D2S0201,run-1,148.456,5.833,3,O+P-,1712,1,T3_dose.bmp,T0_pose.bmp
ds006239_sub-1077,ds006239,sub-1077,ses-1,task-ReadPhon,acq-D2S0201,run-1,154.289,4.799,3,O+P-,2623,1,T3_touch.bmp,T1_couch.bmp
ds006239_sub-1077,ds006239,sub-1077,ses-1,task-ReadPhon,acq-D2S0201,run-1,159.088,4.8,6,perceptual,1200,1,_F3_e6.bmp,_F0_s6.bmp
ds006239_sub-1077,ds006239,sub-1077,ses-1,task-ReadPhon,acq-D2S0201,run-1,163.888,5.799,8,control,1560,1,Gen/_Fix_Green.bmp,Gen/_Fix_Red.bmp
ds006239_sub-1077,ds006239,sub-1077,ses-1,task-ReadPhon,acq-D2S0201,run-1,169.687,5.799,7,control,1497,1,Gen/_Fix_Green.bmp,Gen/_Fix_Green.bmp
ds006239_sub-1077,ds006239,sub-1077,ses-1,task-ReadPhon,acq-D2S0201,run-1,175.486,5.299,8,control,1746,1,Gen/_Fix_Red.bmp,Gen/_Fix_Green.bmp
ds006239_sub-1077,ds006239,sub-1077,ses-1,task-ReadPhon,acq-D2S0201,run-1,180.785,4.816,7,control,1679,1,Gen/_Fix_Red.bmp,Gen/_Fix_Red.bmp
ds006239_sub-1077,ds006239,sub-1077,ses-1,task-ReadPhon,acq-D2S0201,run-1,185.601,5.3,4,O-P-,2167,1,T3_port.bmp,T1_warm.bmp
ds006239_sub-1077,ds006239,sub-1077,ses-1,task-ReadPhon,acq-D2S0201,run-1,190.901,5.799,2,O-P+,1707,0,T3_june.bmp,T2_noon.bmp
ds006239_sub-1077,ds006239,sub-1077,ses-1,task-ReadPhon,acq-D2S0201,run-1,196.7,4.799,4,O-P-,1188,1,T3_wreath.bmp,T0_leap.bmp
ds006239_sub-1077,ds006239,sub-1077,ses-1,task-ReadPhon,acq-D2S0201,run-1,201.499,4.8,5,perceptual,1381,1,_F3_b6.bmp,_F2_b6.bmp
ds006239_sub-1077,ds006239,sub-1077,ses-1,task-ReadPhon,acq-D2S0201,run-1,206.299,5.299,3,O+P-,1885,0,T3_glove.bmp,T0_stove.bmp
ds006239_sub-1077,ds006239,sub-1077,ses-1,task-ReadPhon,acq-D2S0201,run-1,211.598,5.816,1,O+P+,1250,1,T3_numb.bmp,T1_crumb.bmp
ds006239_sub-1077,ds006239,sub-1077,ses-1,task-ReadPhon,acq-D2S0201,run-1,217.414,4.799,3,O+P-,1346,1,T3_stood.bmp,T2_flood.bmp
ds006239_sub-1077,ds006239,sub-1077,ses-1,task-ReadPhon,acq-D2S0201,run-1,222.213,5.3,5,perceptual,1531,1,_F3_s4.bmp,_F1_s4.bmp
ds006239_sub-1077,ds006239,sub-1077,ses-1,task-ReadPhon,acq-D2S0201,run-1,227.513,5.799,4,O-P-,2215,1,T3_smart.bmp,T1_drought.bmp
ds006239_sub-1077,ds006239,sub-1077,ses-1,task-ReadPhon,acq-D2S0201,run-1,233.312,5.299,2,O-P+,1192,1,T3_stir.bmp,T2_blur.bmp
ds006239_sub-1077,ds006239,sub-1077,ses-1,task-ReadPhon,acq-D2S0201,run-1,238.611,5.3,8,control,1486,1,Gen/_Fix_Red.bmp,Gen/_Fix_Green.bmp
ds006239_sub-1077,ds006239,sub-1077,ses-1,task-ReadPhon,acq-D2S0201,run-1,243.911,5.299,7,control,1354,1,Gen/_Fix_Red.bmp,Gen/_Fix_Red.bmp
ds006239_sub-1077,ds006239,sub-1077,ses-1,task-ReadPhon,acq-D2S0201,run-1,249.21,5.799,3,O+P-,1246,0,T3_pool.bmp,T0_wool.bmp
ds006239_sub-1077,ds006239,sub-1077,ses-1,task-ReadPhon,acq-D2S0201,run-1,255.009,5.299,3,O+P-,1895,0,T3_fought.bmp,T2_drought.bmp
ds006239_sub-1077,ds006239,sub-1077,ses-1,task-ReadPhon,acq-D2S0201,run-1,260.308,4.8,2,O-P+,1308,1,T3_flight.bmp,T1_spite.bmp
ds006239_sub-1077,ds006239,sub-1077,ses-1,task-ReadPhon,acq-D2S0201,run-1,265.108,5.299,2,O-P+,1364,1,T3_scheme.bmp,T0_cream.bmp
ds006239_sub-1077,ds006239,sub-1077,ses-1,task-ReadPhon,acq-D2S0201,run-1,270.407,5.316,6,perceptual,1417,1,_F3_b6.bmp,_F2_f6.bmp
ds006239_sub-1077,ds006239,sub-1077,ses-1,task-ReadPhon,acq-D2S0201,run-1,275.723,5.799,4,O-P-,1389,1,T3_ghost.bmp,T0_pose.bmp
ds006239_sub-1077,ds006239,sub-1077,ses-1,task-ReadPhon,acq-D2S0201,run-1,281.522,4.816,4,O-P-,1646,1,T3_grace.bmp,T1_fence.bmp
ds006239_sub-1077,ds006239,sub-1077,ses-1,task-ReadPhon,acq-D2S0201,run-1,286.338,4.8,3,O+P-,1758,1,T3_dull.bmp,T2_bull.bmp
ds006239_sub-1077,ds006239,sub-1077,ses-1,task-ReadPhon,acq-D2S0201,run-1,291.138,4.799,4,O-P-,1822,1,T3_ford.bmp,T2_rod.bmp
ds006239_sub-1077,ds006239,sub-1077,ses-1,task-ReadPhon,acq-D2S0201,run-1,295.937,5.3,1,O+P+,2487,1,T3_strap.bmp,T2_gap.bmp
ds006239_sub-1077,ds006239,sub-1077,ses-1,task-ReadPhon,acq-D2S0201,run-1,301.237,5.315,4,O-P-,1404,1,T3_stamp.bmp,T2_tomb.bmp
ds006239_sub-1077,ds006239,sub-1077,ses-1,task-ReadPhon,acq-D2S0201,run-1,306.552,5.3,2,O-P+,1152,1,T3_wheel.bmp,T0_deal.bmp
ds006239_sub-1077,ds006239,sub-1077,ses-1,task-ReadPhon,acq-D2S0201,run-1,311.852,5.299,2,O-P+,1372,1,T3_leap.bmp,T2_sweep.bmp
ds006239_sub-1077,ds006239,sub-1077,ses-1,task-ReadPhon,acq-D2S0201,run-1,317.151,4.799,4,O-P-,1769,1,T3_fault.bmp,T2_note.bmp
ds006239_sub-1077,ds006239,sub-1077,ses-1,task-ReadPhon,acq-D2S0201,run-1,321.95,5.8,1,O+P+,1266,1,T3_bull.bmp,T2_full.bmp
ds006239_sub-1077,ds006239,sub-1077,ses-1,task-ReadPhon,acq-D2S0201,run-1,327.75,5.816,2,O-P+,1530,1,T3_chase.bmp,T2_grace.bmp
ds006239_sub-1077,ds006239,sub-1077,ses-1,task-ReadPhon,acq-D2S0201,run-1,333.566,4.799,2,O-P+,1771,1,T3_float.bmp,T0_note.bmp
ds006239_sub-1077,ds006239,sub-1077,ses-1,task-ReadPhon,acq-D2S0201,run-1,338.365,5.799,2,O-P+,1411,1,T3_bride.bmp,T0_dried.bmp
ds006239_sub-1077,ds006239,sub-1077,ses-1,task-ReadPhon,acq-D2S0201,run-1,344.164,5.799,4,O-P-,1516,1,T3_thief.bmp,T0_plead.bmp
ds006239_sub-1077,ds006239,sub-1077,ses-1,task-ReadPhon,acq-D2S0201,run-1,349.963,5.3,1,O+P+,1373,1,T3_bluff.bmp,T2_puff.bmp
ds006239_sub-1077,ds006239,sub-1077,ses-1,task-ReadPhon,acq-D2S0201,run-1,355.263,5.816,5,perceptual,1553,1,_F3_b4.bmp,_F1_b4.bmp
ds006239_sub-1077,ds006239,sub-1077,ses-1,task-ReadPhon,acq-D2S0201,run-1,361.079,5.799,1,O+P+,1505,1,T3_shove.bmp,T1_glove.bmp
ds006239_sub-1077,ds006239,sub-1077,ses-1,task-ReadPhon,acq-D2S0201,run-1,366.878,5.283,6,perceptual,1474,1,_F3_d4.bmp,_F1_o4.bmp
ds006239_sub-1077,ds006239,sub-1077,ses-1,task-ReadPhon,acq-D2S0201,run-1,372.161,5.799,3,O+P-,2080,1,T3_stamp.bmp,T2_swamp.bmp
ds006239_sub-1077,ds006239,sub-1077,ses-1,task-ReadPhon,acq-D2S0201,run-1,377.96,4.832,3,O+P-,1256,0,T3_pint.bmp,T0_hint.bmp
ds006239_sub-1077,ds006239,sub-1077,ses-1,task-ReadPhon,acq-D2S0301,run-2,1.514,5.799,6,perceptual,1406,1,_F3_f4.bmp,_F2_d4.bmp
ds006239_sub-1077,ds006239,sub-1077,ses-1,task-ReadPhon,acq-D2S0301,run-2,7.313,5.799,2,O-P+,1687,1,T3_fall.bmp,T1_crawl.bmp
ds006239_sub-1077,ds006239,sub-1077,ses-1,task-ReadPhon,acq-D2S0301,run-2,13.112,4.816,4,O-P-,2568,1,T3_gross.bmp,T1_post.bmp
ds006239_sub-1077,ds006239,sub-1077,ses-1,task-ReadPhon,acq-D2S0301,run-2,17.928,4.8,2,O-P+,1408,1,T3_tense.bmp,T0_fence.bmp
ds006239_sub-1077,ds006239,sub-1077,ses-1,task-ReadPhon,acq-D2S0301,run-2,22.728,5.299,2,O-P+,1329,1,T3_soup.bmp,T1_loop.bmp
ds006239_sub-1077,ds006239,sub-1077,ses-1,task-ReadPhon,acq-D2S0301,run-2,28.027,5.299,6,perceptual,1269,1,_F3_e4.bmp,_F0_s4.bmp
ds006239_sub-1077,ds006239,sub-1077,ses-1,task-ReadPhon,acq-D2S0301,run-2,33.326,4.8,6,perceptual,1378,1,_F3_b4.bmp,_F0_f4.bmp
ds006239_sub-1077,ds006239,sub-1077,ses-1,task-ReadPhon,acq-D2S0301,run-2,38.126,5.299,4,O-P-,1387,1,T3_pool.bmp,T2_tooth.bmp
ds006239_sub-1077,ds006239,sub-1077,ses-1,task-ReadPhon,acq-D2S0301,run-2,43.425,5.816,4,O-P-,1455,1,T3_both.bmp,T2_stroke.bmp
ds006239_sub-1077,ds006239,sub-1077,ses-1,task-ReadPhon,acq-D2S0301,run-2,49.241,4.799,1,O+P+,1303,1,T3_quart.bmp,T1_wart.bmp
ds006239_sub-1077,ds006239,sub-1077,ses-1,task-ReadPhon,acq-D2S0301,run-2,54.04,5.3,7,control,1312,1,Gen/_Fix_Red.bmp,Gen/_Fix_Red.bmp
ds006239_sub-1077,ds006239,sub-1077,ses-1,task-ReadPhon,acq-D2S0301,run-2,59.34,5.282,5,perceptual,1325,1,_F3_d4.bmp,_F0_d4.bmp
ds006239_sub-1077,ds006239,sub-1077,ses-1,task-ReadPhon,acq-D2S0301,run-2,64.622,5.816,5,perceptual,1401,1,_F3_e4.bmp,_F2_e4.bmp
ds006239_sub-1077,ds006239,sub-1077,ses-1,task-ReadPhon,acq-D2S0301,run-2,70.438,4.799,3,O+P-,1740,1,T3_smooth.bmp,T0_tooth.bmp
ds006239_sub-1077,ds006239,sub-1077,ses-1,task-ReadPhon,acq-D2S0301,run-2,75.237,4.8,2,O-P+,2067,1,T3_stool.bmp,T1_rule.bmp
ds006239_sub-1077,ds006239,sub-1077,ses-1,task-ReadPhon,acq-D2S0301,run-2,80.037,5.299,8,control,2115,1,Gen/_Fix_Red.bmp,Gen/_Fix_Green.bmp
ds006239_sub-1077,ds006239,sub-1077,ses-1,task-ReadPhon,acq-D2S0301,run-2,85.336,5.299,4,O-P-,1456,1,T3_flight.bmp,T0_threat.bmp
ds006239_sub-1077,ds006239,sub-1077,ses-1,task-ReadPhon,acq-D2S0301,run-2,90.635,5.316,2,O-P+,1133,1,T3_bluff.bmp,T2_tough.bmp
ds006239_sub-1077,ds006239,sub-1077,ses-1,task-ReadPhon,acq-D2S0301,run-2,95.951,5.8,6,perceptual,1401,1,_F3_s4.bmp,_F1_e4.bmp
ds006239_sub-1077,ds006239,sub-1077,ses-1,task-ReadPhon,acq-D2S0301,run-2,101.751,5.799,2,O-P+,1338,1,T3_halt.bmp,T0_fault.bmp
ds006239_sub-1077,ds006239,sub-1077,ses-1,task-ReadPhon,acq-D2S0301,run-2,107.55,4.816,4,O-P-,1513,1,T3_dried.bmp,T1_stood.bmp
ds006239_sub-1077,ds006239,sub-1077,ses-1,task-ReadPhon,acq-D2S0301,run-2,112.366,4.799,1,O+P+,1290,1,T3_brow.bmp,T2_cow.bmp
ds006239_sub-1077,ds006239,sub-1077,ses-1,task-ReadPhon,acq-D2S0301,run-2,117.165,5.816,1,O+P+,1731,1,T3_goat.bmp,T1_float.bmp
ds006239_sub-1077,ds006239,sub-1077,ses-1,task-ReadPhon,acq-D2S0301,run-2,122.981,4.8,1,O+P+,1539,1,T3_glide.bmp,T2_bride.bmp
ds006239_sub-1077,ds006239,sub-1077,ses-1,task-ReadPhon,acq-D2S0301,run-2,127.781,5.299,7,control,1395,1,Gen/_Fix_Red.bmp,Gen/_Fix_Red.bmp
ds006239_sub-1077,ds006239,sub-1077,ses-1,task-ReadPhon,acq-D2S0301,run-2,133.08,4.799,8,control,1328,1,Gen/_Fix_Red.bmp,Gen/_Fix_Green.bmp
ds006239_sub-1077,ds006239,sub-1077,ses-1,task-ReadPhon,acq-D2S0301,run-2,137.879,5.8,3,O+P-,2065,1,T3_plead.bmp,T2_spread.bmp
ds006239_sub-1077,ds006239,sub-1077,ses-1,task-ReadPhon,acq-D2S0301,run-2,143.679,4.799,5,perceptual,1826,1,_F3_d6.bmp,_F1_d6.bmp
ds006239_sub-1077,ds006239,sub-1077,ses-1,task-ReadPhon,acq-D2S0301,run-2,148.478,5.316,2,O-P+,1402,1,T3_roast.bmp,T2_ghost.bmp
ds006239_sub-1077,ds006239,sub-1077,ses-1,task-ReadPhon,acq-D2S0301,run-2,153.794,4.799,5,perceptual,1494,1,_F3_e6.bmp,_F2_e6.bmp
ds006239_sub-1077,ds006239,sub-1077,ses-1,task-ReadPhon,acq-D2S0301,run-2,158.593,5.8,8,control,1647,1,Gen/_Fix_Red.bmp,Gen/_Fix_Green.bmp
ds006239_sub-1077,ds006239,sub-1077,ses-1,task-ReadPhon,acq-D2S0301,run-2,164.393,5.799,2,O-P+,1288,1,T3_odd.bmp,T0_rod.bmp
ds006239_sub-1077,ds006239,sub-1077,ses-1,task-ReadPhon,acq-D2S0301,run-2,170.192,5.299,1,O+P+,1936,1,T3_spoon.bmp,T1_noon.bmp
ds006239_sub-1077,ds006239,sub-1077,ses-1,task-ReadPhon,acq-D2S0301,run-2,175.491,5.816,7,control,1253,1,Gen/_Fix_Green.bmp,Gen/_Fix_Green.bmp
ds006239_sub-1077,ds006239,sub-1077,ses-1,task-ReadPhon,acq-D2S0301,run-2,181.307,4.799,7,control,1325,1,Gen/_Fix_Green.bmp,Gen/_Fix_Green.bmp
ds006239_sub-1077,ds006239,sub-1077,ses-1,task-ReadPhon,acq-D2S0301,run-2,186.106,4.8,7,control,1366,1,Gen/_Fix_Red.bmp,Gen/_Fix_Red.bmp
ds006239_sub-1077,ds006239,sub-1077,ses-1,task-ReadPhon,acq-D2S0301,run-2,190.906,5.782,8,control,1454,0,Gen/_Fix_Green.bmp,Gen/_Fix_Red.bmp
ds006239_sub-1077,ds006239,sub-1077,ses-1,task-ReadPhon,acq-D2S0301,run-2,196.688,4.8,3,O+P-,1864,1,T3_breath.bmp,T0_wreath.bmp
ds006239_sub-1077,ds006239,sub-1077,ses-1,task-ReadPhon,acq-D2S0301,run-2,201.488,5.316,1,O+P+,1648,1,T3_neat.bmp,T2_wheat.bmp
ds006239_sub-1077,ds006239,sub-1077,ses-1,task-ReadPhon,acq-D2S0301,run-2,206.804,5.799,3,O+P-,1460,1,T3_mouth.bmp,T1_youth.bmp
ds006239_sub-1077,ds006239,sub-1077,ses-1,task-ReadPhon,acq-D2S0301,run-2,212.603,5.799,1,O+P+,1269,1,T3_toss.bmp,T0_moss.bmp
ds006239_sub-1077,ds006239,sub-1077,ses-1,task-ReadPhon,acq-D2S0301,run-2,218.402,5.299,5,perceptual,1374,1,_F3_f6.bmp,_F1_f6.bmp
ds006239_sub-1077,ds006239,sub-1077,ses-1,task-ReadPhon,acq-D2S0301,run-2,223.701,5.816,4,O-P-,1339,1,T3_rule.bmp,T0_blur.bmp
ds006239_sub-1077,ds006239,sub-1077,ses-1,task-ReadPhon,acq-D2S0301,run-2,229.517,5.3,3,O+P-,2363,1,T3_tomb.bmp,T2_comb.bmp
ds006239_sub-1077,ds006239,sub-1077,ses-1,task-ReadPhon,acq-D2S0301,run-2,234.817,5.816,5,perceptual,1567,1,_F3_o6.bmp,_F0_o6.bmp
ds006239_sub-1077,ds006239,sub-1077,ses-1,task-ReadPhon,acq-D2S0301,run-2,240.633,4.799,4,O-P-,1215,1,T3_june.bmp,T1_loop.bmp
ds006239_sub-1077,ds006239,sub-1077,ses-1,task-ReadPhon,acq-D2S0301,run-2,245.432,5.299,2,O-P+,2232,1,T3_warm.bmp,T2_form.bmp
ds006239_sub-1077,ds006239,sub-1077,ses-1,task-ReadPhon,acq-D2S0301,run-2,250.731,5.316,4,O-P-,1237,1,T3_rum.bmp,T2_touch.bmp
ds006239_sub-1077,ds006239,sub-1077,ses-1,task-ReadPhon,acq-D2S0301,run-2,256.047,4.8,3,O+P-,2353,1,T3_gross.bmp,T1_moss.bmp
ds006239_sub-1077,ds006239,sub-1077,ses-1,task-ReadPhon,acq-D2S0301,run-2,260.847,4.799,4,O-P-,2329,1,T3_glow.bmp,T0_stove.bmp
ds006239_sub-1077,ds006239,sub-1077,ses-1,task-ReadPhon,acq-D2S0301,run-2,265.646,5.799,4,O-P-,1482,1,T3_wheel.bmp,T2_sneak.bmp
ds006239_sub-1077,ds006239,sub-1077,ses-1,task-ReadPhon,acq-D2S0301,run-2,271.445,5.3,3,O+P-,2211,1,T3_cow.bmp,T0_glow.bmp
ds006239_sub-1077,ds006239,sub-1077,ses-1,task-ReadPhon,acq-D2S0301,run-2,276.745,5.316,1,O+P+,1271,1,T3_pile.bmp,T1_mile.bmp
ds006239_sub-1077,ds006239,sub-1077,ses-1,task-ReadPhon,acq-D2S0301,run-2,282.061,5.799,2,O-P+,1316,1,T3_cheek.bmp,T1_sneak.bmp
ds006239_sub-1077,ds006239,sub-1077,ses-1,task-ReadPhon,acq-D2S0301,run-2,287.86,5.299,4,O-P-,1396,1,T3_youth.bmp,T0_hint.bmp
ds006239_sub-1077,ds006239,sub-1077,ses-1,task-ReadPhon,acq-D2S0301,run-2,293.159,4.8,2,O-P+,1785,1,T3_thief.bmp,T0_beef.bmp
ds006239_sub-1077,ds006239,sub-1077,ses-1,task-ReadPhon,acq-D2S0301,run-2,297.959,5.299,8,control,1906,1,Gen/_Fix_Green.bmp,Gen/_Fix_Red.bmp
ds006239_sub-1077,ds006239,sub-1077,ses-1,task-ReadPhon,acq-D2S0301,run-2,303.258,5.816,3,O+P-,2319,0,T3_swarm.bmp,T2_harm.bmp
ds006239_sub-1077,ds006239,sub-1077,ses-1,task-ReadPhon,acq-D2S0301,run-2,309.074,4.799,6,perceptual,1758,1,_F3_o6.bmp,_F2_b6.bmp
ds006239_sub-1077,ds006239,sub-1077,ses-1,task-ReadPhon,acq-D2S0301,run-2,313.873,5.299,3,O+P-,2727,1,T3_both.bmp,T1_cloth.bmp
ds006239_sub-1077,ds006239,sub-1077,ses-1,task-ReadPhon,acq-D2S0301,run-2,319.172,4.783,8,control,1340,1,Gen/_Fix_Green.bmp,Gen/_Fix_Red.bmp
ds006239_sub-1077,ds006239,sub-1077,ses-1,task-ReadPhon,acq-D2S0301,run-2,323.955,5.799,4,O-P-,1213,1,T3_cream.bmp,T1_swarm.bmp
ds006239_sub-1077,ds006239,sub-1077,ses-1,task-ReadPhon,acq-D2S0301,run-2,329.754,5.316,3,O+P-,2838,1,T3_ford.bmp,T0_word.bmp
ds006239_sub-1077,ds006239,sub-1077,ses-1,task-ReadPhon,acq-D2S0301,run-2,335.07,5.3,1,O+P+,1210,1,T3_vase.bmp,T2_chase.bmp
ds006239_sub-1077,ds006239,sub-1077,ses-1,task-ReadPhon,acq-D2S0301,run-2,340.37,5.299,6,perceptual,1238,1,_F3_f6.bmp,_F1_d6.bmp
ds006239_sub-1077,ds006239,sub-1077,ses-1,task-ReadPhon,acq-D2S0301,run-2,345.669,5.799,1,O+P+,1427,1,T3_flood.bmp,T0_blood.bmp
ds006239_sub-1077,ds006239,sub-1077,ses-1,task-ReadPhon,acq-D2S0301,run-2,351.468,4.8,2,O-P+,1884,0,T3_quart.bmp,T2_port.bmp
ds006239_sub-1077,ds006239,sub-1077,ses-1,task-ReadPhon,acq-D2S0301,run-2,356.268,4.816,3,O+P-,1597,1,T3_swap.bmp,T1_gap.bmp
ds006239_sub-1077,ds006239,sub-1077,ses-1,task-ReadPhon,acq-D2S0301,run-2,361.084,4.799,1,O+P+,2364,1,T3_frost.bmp,T0_cost.bmp
ds006239_sub-1077,ds006239,sub-1077,ses-1,task-ReadPhon,acq-D2S0301,run-2,365.883,5.816,1,O+P+,1677,1,T3_harm.bmp,T0_farm.bmp
ds006239_sub-1077,ds006239,sub-1077,ses-1,task-ReadPhon,acq-D2S0301,run-2,371.699,5.799,3,O+P-,1533,1,T3_scratch.bmp,T2_watch.bmp
ds006239_sub-1077,ds006239,sub-1077,ses-1,task-ReadPhon,acq-D2S0301,run-2,377.498,5.333,7,control,1374,1,Gen/_Fix_Green.bmp,Gen/_Fix_Green.bmp
ds006239_sub-1078,ds006239,sub-1078,ses-1,task-ReadPhon,acq-D2S0201,run-1,1.513,4.8,3,O+P-,1335,0,T3_post.bmp,T1_cost.bmp
ds006239_sub-1078,ds006239,sub-1078,ses-1,task-ReadPhon,acq-D2S0201,run-1,6.313,5.299,5,perceptual,1319,1,_F3_o4.bmp,_F2_o4.bmp
ds006239_sub-1078,ds006239,sub-1078,ses-1,task-ReadPhon,acq-D2S0201,run-1,11.612,4.783,2,O-P+,1412,0,T3_rum.bmp,T1_numb.bmp
ds006239_sub-1078,ds006239,sub-1078,ses-1,task-ReadPhon,acq-D2S0201,run-1,16.395,5.816,7,control,1181,1,Gen/_Fix_Green.bmp,Gen/_Fix_Green.bmp
ds006239_sub-1078,ds006239,sub-1078,ses-1,task-ReadPhon,acq-D2S0201,run-1,22.211,4.799,6,perceptual,1253,1,_F3_s6.bmp,_F0_e6.bmp
ds006239_sub-1078,ds006239,sub-1078,ses-1,task-ReadPhon,acq-D2S0201,run-1,27.01,4.799,1,O+P+,1382,1,T3_fought.bmp,T1_sought.bmp
ds006239_sub-1078,ds006239,sub-1078,ses-1,task-ReadPhon,acq-D2S0201,run-1,31.809,4.8,1,O+P+,1535,1,T3_scheme.bmp,T2_theme.bmp
ds006239_sub-1078,ds006239,sub-1078,ses-1,task-ReadPhon,acq-D2S0201,run-1,36.609,4.799,5,perceptual,1463,1,_F3_f4.bmp,_F0_f4.bmp
ds006239_sub-1078,ds006239,sub-1078,ses-1,task-ReadPhon,acq-D2S0201,run-1,41.408,5.299,1,O+P+,1464,1,T3_stool.bmp,T0_fool.bmp
ds006239_sub-1078,ds006239,sub-1078,ses-1,task-ReadPhon,acq-D2S0201,run-1,46.707,5.316,1,O+P+,1405,1,T3_soak.bmp,T0_oak.bmp
ds006239_sub-1078,ds006239,sub-1078,ses-1,task-ReadPhon,acq-D2S0201,run-1,52.023,5.3,3,O+P-,2369,1,T3_threat.bmp,T1_wheat.bmp
ds006239_sub-1078,ds006239,sub-1078,ses-1,task-ReadPhon,acq-D2S0201,run-1,57.323,4.816,1,O+P+,1429,1,T3_thread.bmp,T0_spread.bmp
ds006239_sub-1078,ds006239,sub-1078,ses-1,task-ReadPhon,acq-D2S0201,run-1,62.139,5.799,2,O-P+,1365,1,T3_pile.bmp,T1_trial.bmp
ds006239_sub-1078,ds006239,sub-1078,ses-1,task-ReadPhon,acq-D2S0201,run-1,67.938,5.799,4,O-P-,1334,1,T3_swap.bmp,T2_watch.bmp
ds006239_sub-1078,ds006239,sub-1078,ses-1,task-ReadPhon,acq-D2S0201,run-1,73.737,5.816,8,control,1231,1,Gen/_Fix_Green.bmp,Gen/_Fix_Red.bmp
ds006239_sub-1078,ds006239,sub-1078,ses-1,task-ReadPhon,acq-D2S0201,run-1,79.553,5.3,4,O-P-,1287,1,T3_tough.bmp,T1_dull.bmp
ds006239_sub-1078,ds006239,sub-1078,ses-1,task-ReadPhon,acq-D2S0201,run-1,84.853,5.799,6,perceptual,1284,1,_F3_o4.bmp,_F2_b4.bmp
ds006239_sub-1078,ds006239,sub-1078,ses-1,task-ReadPhon,acq-D2S0201,run-1,90.652,5.799,1,O+P+,1300,1,T3_sweep.bmp,T0_creep.bmp
ds006239_sub-1078,ds006239,sub-1078,ses-1,task-ReadPhon,acq-D2S0201,run-1,96.451,5.799,6,perceptual,1205,1,_F3_d6.bmp,_F1_o6.bmp
ds006239_sub-1078,ds006239,sub-1078,ses-1,task-ReadPhon,acq-D2S0201,run-1,102.25,4.816,8,control,2118,1,Gen/_Fix_Green.bmp,Gen/_Fix_Red.bmp
ds006239_sub-1078,ds006239,sub-1078,ses-1,task-ReadPhon,acq-D2S0201,run-1,107.066,4.8,2,O-P+,1750,1,T3_stroke.bmp,T1_soak.bmp
ds006239_sub-1078,ds006239,sub-1078,ses-1,task-ReadPhon,acq-D2S0201,run-1,111.866,5.299,4,O-P-,1205,1,T3_trial.bmp,T0_fall.bmp
ds006239_sub-1078,ds006239,sub-1078,ses-1,task-ReadPhon,acq-D2S0201,run-1,117.165,5.799,5,perceptual,1251,1,_F3_s6.bmp,_F0_s6.bmp
ds006239_sub-1078,ds006239,sub-1078,ses-1,task-ReadPhon,acq-D2S0201,run-1,122.964,4.8,7,control,1444,1,Gen/_Fix_Green.bmp,Gen/_Fix_Green.bmp
ds006239_sub-1078,ds006239,sub-1078,ses-1,task-ReadPhon,acq-D2S0201,run-1,127.764,4.799,8,control,1292,1,Gen/_Fix_Red.bmp,Gen/_Fix_Green.bmp
ds006239_sub-1078,ds006239,sub-1078,ses-1,task-ReadPhon,acq-D2S0201,run-1,132.563,5.316,7,control,1220,1,Gen/_Fix_Red.bmp,Gen/_Fix_Red.bmp
ds006239_sub-1078,ds006239,sub-1078,ses-1,task-ReadPhon,acq-D2S0201,run-1,137.879,4.799,1,O+P+,1320,1,T3_beef.bmp,T1_reef.bmp
ds006239_sub-1078,ds006239,sub-1078,ses-1,task-ReadPhon,acq-D2S0201,run-1,142.678,5.783,3,O+P-,1289,1,T3_wart.bmp,T1_smart.bmp
ds006239_sub-1078,ds006239,sub-1078,ses-1,task-ReadPhon,acq-D2S0201,run-1,148.461,5.799,3,O+P-,1698,1,T3_dose.bmp,T0_pose.bmp
ds006239_sub-1078,ds006239,sub-1078,ses-1,task-ReadPhon,acq-D2S0201,run-1,154.26,4.8,3,O+P-,2588,0,T3_touch.bmp,T1_couch.bmp
ds006239_sub-1078,ds006239,sub-1078,ses-1,task-ReadPhon,acq-D2S0201,run-1,159.06,4.816,6,perceptual,1172,1,_F3_e6.bmp,_F0_s6.bmp
ds006239_sub-1078,ds006239,sub-1078,ses-1,task-ReadPhon,acq-D2S0201,run-1,163.876,5.799,8,control,1132,1,Gen/_Fix_Green.bmp,Gen/_Fix_Red.bmp
ds006239_sub-1078,ds006239,sub-1078,ses-1,task-ReadPhon,acq-D2S0201,run-1,169.675,5.799,7,control,1276,1,Gen/_Fix_Green.bmp,Gen/_Fix_Green.bmp
ds006239_sub-1078,ds006239,sub-1078,ses-1,task-ReadPhon,acq-D2S0201,run-1,175.474,5.299,8,control,1437,1,Gen/_Fix_Red.bmp,Gen/_Fix_Green.bmp
ds006239_sub-1078,ds006239,sub-1078,ses-1,task-ReadPhon,acq-D2S0201,run-1,180.773,4.8,7,control,1170,1,Gen/_Fix_Red.bmp,Gen/_Fix_Red.bmp
ds006239_sub-1078,ds006239,sub-1078,ses-1,task-ReadPhon,acq-D2S0201,run-1,185.573,5.299,4,O-P-,1194,1,T3_port.bmp,T1_warm.bmp
ds006239_sub-1078,ds006239,sub-1078,ses-1,task-ReadPhon,acq-D2S0201,run-1,190.872,5.833,2,O-P+,1638,1,T3_june.bmp,T2_noon.bmp
ds006239_sub-1078,ds006239,sub-1078,ses-1,task-ReadPhon,acq-D2S0201,run-1,196.705,4.799,4,O-P-,1118,1,T3_wreath.bmp,T0_leap.bmp
ds006239_sub-1078,ds006239,sub-1078,ses-1,task-ReadPhon,acq-D2S0201,run-1,201.504,4.8,5,perceptual,1503,1,_F3_b6.bmp,_F2_b6.bmp
ds006239_sub-1078,ds006239,sub-1078,ses-1,task-ReadPhon,acq-D2S0201,run-1,206.304,5.299,3,O+P-,1640,1,T3_glove.bmp,T0_stove.bmp
ds006239_sub-1078,ds006239,sub-1078,ses-1,task-ReadPhon,acq-D2S0201,run-1,211.603,5.801,1,O+P+,1796,1,T3_numb.bmp,T1_crumb.bmp
ds006239_sub-1078,ds006239,sub-1078,ses-1,task-ReadPhon,acq-D2S0201,run-1,217.404,4.814,3,O+P-,2149,1,T3_stood.bmp,T2_flood.bmp
ds006239_sub-1078,ds006239,sub-1078,ses-1,task-ReadPhon,acq-D2S0201,run-1,222.218,5.299,5,perceptual,1197,1,_F3_s4.bmp,_F1_s4.bmp
ds006239_sub-1078,ds006239,sub-1078,ses-1,task-ReadPhon,acq-D2S0201,run-1,227.517,5.8,4,O-P-,1402,1,T3_smart.bmp,T1_drought.bmp
ds006239_sub-1078,ds006239,sub-1078,ses-1,task-ReadPhon,acq-D2S0201,run-1,233.317,5.299,2,O-P+,1187,1,T3_stir.bmp,T2_blur.bmp
ds006239_sub-1078,ds006239,sub-1078,ses-1,task-ReadPhon,acq-D2S0201,run-1,238.616,5.3,8,control,1247,1,Gen/_Fix_Red.bmp,Gen/_Fix_Green.bmp
ds006239_sub-1078,ds006239,sub-1078,ses-1,task-ReadPhon,acq-D2S0201,run-1,243.916,5.299,7,control,1780,1,Gen/_Fix_Red.bmp,Gen/_Fix_Red.bmp
ds006239_sub-1078,ds006239,sub-1078,ses-1,task-ReadPhon,acq-D2S0201,run-1,249.215,5.816,3,O+P-,1265,0,T3_pool.bmp,T0_wool.bmp
ds006239_sub-1078,ds006239,sub-1078,ses-1,task-ReadPhon,acq-D2S0201,run-1,255.031,5.299,3,O+P-,1769,1,T3_fought.bmp,T2_drought.bmp
ds006239_sub-1078,ds006239,sub-1078,ses-1,task-ReadPhon,acq-D2S0201,run-1,260.33,4.799,2,O-P+,1333,1,T3_flight.bmp,T1_spite.bmp
ds006239_sub-1078,ds006239,sub-1078,ses-1,task-ReadPhon,acq-D2S0201,run-1,265.129,5.299,2,O-P+,1158,1,T3_scheme.bmp,T0_cream.bmp
ds006239_sub-1078,ds006239,sub-1078,ses-1,task-ReadPhon,acq-D2S0201,run-1,270.428,5.3,6,perceptual,1355,1,_F3_b6.bmp,_F2_f6.bmp
ds006239_sub-1078,ds006239,sub-1078,ses-1,task-ReadPhon,acq-D2S0201,run-1,275.728,5.799,4,O-P-,1207,0,T3_ghost.bmp,T0_pose.bmp
ds006239_sub-1078,ds006239,sub-1078,ses-1,task-ReadPhon,acq-D2S0201,run-1,281.527,4.799,4,O-P-,1464,1,T3_grace.bmp,T1_fence.bmp
ds006239_sub-1078,ds006239,sub-1078,ses-1,task-ReadPhon,acq-D2S0201,run-1,286.326,4.8,3,O+P-,2185,1,T3_dull.bmp,T2_bull.bmp
ds006239_sub-1078,ds006239,sub-1078,ses-1,task-ReadPhon,acq-D2S0201,run-1,291.126,4.799,4,O-P-,1217,1,T3_ford.bmp,T2_rod.bmp
ds006239_sub-1078,ds006239,sub-1078,ses-1,task-ReadPhon,acq-D2S0201,run-1,295.925,5.299,1,O+P+,1194,1,T3_strap.bmp,T2_gap.bmp
ds006239_sub-1078,ds006239,sub-1078,ses-1,task-ReadPhon,acq-D2S0201,run-1,301.224,5.3,4,O-P-,1615,1,T3_stamp.bmp,T2_tomb.bmp
ds006239_sub-1078,ds006239,sub-1078,ses-1,task-ReadPhon,acq-D2S0201,run-1,306.524,5.299,2,O-P+,1227,1,T3_wheel.bmp,T0_deal.bmp
ds006239_sub-1078,ds006239,sub-1078,ses-1,task-ReadPhon,acq-D2S0201,run-1,311.823,5.316,2,O-P+,1207,1,T3_leap.bmp,T2_sweep.bmp
ds006239_sub-1078,ds006239,sub-1078,ses-1,task-ReadPhon,acq-D2S0201,run-1,317.139,4.799,4,O-P-,1260,1,T3_fault.bmp,T2_note.bmp
ds006239_sub-1078,ds006239,sub-1078,ses-1,task-ReadPhon,acq-D2S0201,run-1,321.938,5.816,1,O+P+,1292,1,T3_bull.bmp,T2_full.bmp
ds006239_sub-1078,ds006239,sub-1078,ses-1,task-ReadPhon,acq-D2S0201,run-1,327.754,5.8,2,O-P+,1245,1,T3_chase.bmp,T2_grace.bmp
ds006239_sub-1078,ds006239,sub-1078,ses-1,task-ReadPhon,acq-D2S0201,run-1,333.554,4.799,2,O-P+,1182,1,T3_float.bmp,T0_note.bmp
ds006239_sub-1078,ds006239,sub-1078,ses-1,task-ReadPhon,acq-D2S0201,run-1,338.353,5.816,2,O-P+,1230,0,T3_bride.bmp,T0_dried.bmp
ds006239_sub-1078,ds006239,sub-1078,ses-1,task-ReadPhon,acq-D2S0201,run-1,344.169,5.799,4,O-P-,1206,1,T3_thief.bmp,T0_plead.bmp
ds006239_sub-1078,ds006239,sub-1078,ses-1,task-ReadPhon,acq-D2S0201,run-1,349.968,5.3,1,O+P+,1159,1,T3_bluff.bmp,T2_puff.bmp
ds006239_sub-1078,ds006239,sub-1078,ses-1,task-ReadPhon,acq-D2S0201,run-1,355.268,5.799,5,perceptual,1228,1,_F3_b4.bmp,_F1_b4.bmp
ds006239_sub-1078,ds006239,sub-1078,ses-1,task-ReadPhon,acq-D2S0201,run-1,361.067,5.799,1,O+P+,1276,1,T3_shove.bmp,T1_glove.bmp
ds006239_sub-1078,ds006239,sub-1078,ses-1,task-ReadPhon,acq-D2S0201,run-1,366.866,5.316,6,perceptual,1261,1,_F3_d4.bmp,_F1_o4.bmp
ds006239_sub-1078,ds006239,sub-1078,ses-1,task-ReadPhon,acq-D2S0201,run-1,372.182,5.799,3,O+P-,1289,1,T3_stamp.bmp,T2_swamp.bmp
ds006239_sub-1078,ds006239,sub-1078,ses-1,task-ReadPhon,acq-D2S0201,run-1,377.981,4.833,3,O+P-,1626,1,T3_pint.bmp,T0_hint.bmp
ds006239_sub-1078,ds006239,sub-1078,ses-1,task-ReadPhon,acq-D2S0301,run-2,1.505,5.816,6,perceptual,1159,1,_F3_f4.bmp,_F2_d4.bmp
ds006239_sub-1078,ds006239,sub-1078,ses-1,task-ReadPhon,acq-D2S0301,run-2,7.321,5.799,2,O-P+,1303,1,T3_fall.bmp,T1_crawl.bmp
ds006239_sub-1078,ds006239,sub-1078,ses-1,task-ReadPhon,acq-D2S0301,run-2,13.12,4.799,4,O-P-,1680,1,T3_gross.bmp,T1_post.bmp
ds006239_sub-1078,ds006239,sub-1078,ses-1,task-ReadPhon,acq-D2S0301,run-2,17.919,4.8,2,O-P+,1121,1,T3_tense.bmp,T0_fence.bmp
ds006239_sub-1078,ds006239,sub-1078,ses-1,task-ReadPhon,acq-D2S0301,run-2,22.719,5.299,2,O-P+,1649,1,T3_soup.bmp,T1_loop.bmp
ds006239_sub-1078,ds006239,sub-1078,ses-1,task-ReadPhon,acq-D2S0301,run-2,28.018,5.316,6,perceptual,1694,1,_F3_e4.bmp,_F0_s4.bmp
ds006239_sub-1078,ds006239,sub-1078,ses-1,task-ReadPhon,acq-D2S0301,run-2,33.334,4.799,6,perceptual,1226,1,_F3_b4.bmp,_F0_f4.bmp
ds006239_sub-1078,ds006239,sub-1078,ses-1,task-ReadPhon,acq-D2S0301,run-2,38.133,5.3,4,O-P-,1267,1,T3_pool.bmp,T2_tooth.bmp
ds006239_sub-1078,ds006239,sub-1078,ses-1,task-ReadPhon,acq-D2S0301,run-2,43.433,5.799,4,O-P-,1375,1,T3_both.bmp,T2_stroke.bmp
ds006239_sub-1078,ds006239,sub-1078,ses-1,task-ReadPhon,acq-D2S0301,run-2,49.232,4.799,1,O+P+,1256,1,T3_quart.bmp,T1_wart.bmp
ds006239_sub-1078,ds006239,sub-1078,ses-1,task-ReadPhon,acq-D2S0301,run-2,54.031,5.3,7,control,1137,1,Gen/_Fix_Red.bmp,Gen/_Fix_Red.bmp
ds006239_sub-1078,ds006239,sub-1078,ses-1,task-ReadPhon,acq-D2S0301,run-2,59.331,5.299,5,perceptual,1270,1,_F3_d4.bmp,_F0_d4.bmp
ds006239_sub-1078,ds006239,sub-1078,ses-1,task-ReadPhon,acq-D2S0301,run-2,64.63,5.799,5,perceptual,1282,1,_F3_e4.bmp,_F2_e4.bmp
ds006239_sub-1078,ds006239,sub-1078,ses-1,task-ReadPhon,acq-D2S0301,run-2,70.429,4.8,3,O+P-,1707,1,T3_smooth.bmp,T0_tooth.bmp
ds006239_sub-1078,ds006239,sub-1078,ses-1,task-ReadPhon,acq-D2S0301,run-2,75.229,4.799,2,O-P+,1860,1,T3_stool.bmp,T1_rule.bmp
ds006239_sub-1078,ds006239,sub-1078,ses-1,task-ReadPhon,acq-D2S0301,run-2,80.028,5.316,8,control,1444,1,Gen/_Fix_Red.bmp,Gen/_Fix_Green.bmp
ds006239_sub-1078,ds006239,sub-1078,ses-1,task-ReadPhon,acq-D2S0301,run-2,85.344,5.299,4,O-P-,1696,1,T3_flight.bmp,T0_threat.bmp
ds006239_sub-1078,ds006239,sub-1078,ses-1,task-ReadPhon,acq-D2S0301,run-2,90.643,5.3,2,O-P+,1221,1,T3_bluff.bmp,T2_tough.bmp
ds006239_sub-1078,ds006239,sub-1078,ses-1,task-ReadPhon,acq-D2S0301,run-2,95.943,5.799,6,perceptual,1250,1,_F3_s4.bmp,_F1_e4.bmp
ds006239_sub-1078,ds006239,sub-1078,ses-1,task-ReadPhon,acq-D2S0301,run-2,101.742,5.832,2,O-P+,1242,1,T3_halt.bmp,T0_fault.bmp
ds006239_sub-1078,ds006239,sub-1078,ses-1,task-ReadPhon,acq-D2S0301,run-2,107.574,4.8,4,O-P-,1249,1,T3_dried.bmp,T1_stood.bmp
ds006239_sub-1078,ds006239,sub-1078,ses-1,task-ReadPhon,acq-D2S0301,run-2,112.374,4.799,1,O+P+,1209,1,T3_brow.bmp,T2_cow.bmp
ds006239_sub-1078,ds006239,sub-1078,ses-1,task-ReadPhon,acq-D2S0301,run-2,117.173,5.799,1,O+P+,1211,1,T3_goat.bmp,T1_float.bmp
ds006239_sub-1078,ds006239,sub-1078,ses-1,task-ReadPhon,acq-D2S0301,run-2,122.972,4.8,1,O+P+,1347,0,T3_glide.bmp,T2_bride.bmp
ds006239_sub-1078,ds006239,sub-1078,ses-1,task-ReadPhon,acq-D2S0301,run-2,127.772,5.299,7,control,1164,1,Gen/_Fix_Red.bmp,Gen/_Fix_Red.bmp
ds006239_sub-1078,ds006239,sub-1078,ses-1,task-ReadPhon,acq-D2S0301,run-2,133.071,4.816,8,control,1777,1,Gen/_Fix_Red.bmp,Gen/_Fix_Green.bmp
ds006239_sub-1078,ds006239,sub-1078,ses-1,task-ReadPhon,acq-D2S0301,run-2,137.887,5.799,3,O+P-,1152,1,T3_plead.bmp,T2_spread.bmp
ds006239_sub-1078,ds006239,sub-1078,ses-1,task-ReadPhon,acq-D2S0301,run-2,143.686,4.8,5,perceptual,1392,1,_F3_d6.bmp,_F1_d6.bmp
ds006239_sub-1078,ds006239,sub-1078,ses-1,task-ReadPhon,acq-D2S0301,run-2,148.486,5.299,2,O-P+,1385,1,T3_roast.bmp,T2_ghost.bmp
ds006239_sub-1078,ds006239,sub-1078,ses-1,task-ReadPhon,acq-D2S0301,run-2,153.785,4.8,5,perceptual,1215,1,_F3_e6.bmp,_F2_e6.bmp
ds006239_sub-1078,ds006239,sub-1078,ses-1,task-ReadPhon,acq-D2S0301,run-2,158.585,5.815,8,control,1263,1,Gen/_Fix_Red.bmp,Gen/_Fix_Green.bmp
ds006239_sub-1078,ds006239,sub-1078,ses-1,task-ReadPhon,acq-D2S0301,run-2,164.4,5.8,2,O-P+,1207,1,T3_odd.bmp,T0_rod.bmp
ds006239_sub-1078,ds006239,sub-1078,ses-1,task-ReadPhon,acq-D2S0301,run-2,170.2,5.299,1,O+P+,2551,1,T3_spoon.bmp,T1_noon.bmp
ds006239_sub-1078,ds006239,sub-1078,ses-1,task-ReadPhon,acq-D2S0301,run-2,175.499,5.799,7,control,1204,1,Gen/_Fix_Green.bmp,Gen/_Fix_Green.bmp
ds006239_sub-1078,ds006239,sub-1078,ses-1,task-ReadPhon,acq-D2S0301,run-2,181.298,4.8,7,control,1453,1,Gen/_Fix_Green.bmp,Gen/_Fix_Green.bmp
ds006239_sub-1078,ds006239,sub-1078,ses-1,task-ReadPhon,acq-D2S0301,run-2,186.098,4.799,7,control,1214,1,Gen/_Fix_Red.bmp,Gen/_Fix_Red.bmp
ds006239_sub-1078,ds006239,sub-1078,ses-1,task-ReadPhon,acq-D2S0301,run-2,190.897,5.799,8,control,1623,1,Gen/_Fix_Green.bmp,Gen/_Fix_Red.bmp
ds006239_sub-1078,ds006239,sub-1078,ses-1,task-ReadPhon,acq-D2S0301,run-2,196.696,4.8,3,O+P-,1543,1,T3_breath.bmp,T0_wreath.bmp
ds006239_sub-1078,ds006239,sub-1078,ses-1,task-ReadPhon,acq-D2S0301,run-2,201.496,5.299,1,O+P+,2216,0,T3_neat.bmp,T2_wheat.bmp
ds006239_sub-1078,ds006239,sub-1078,ses-1,task-ReadPhon,acq-D2S0301,run-2,206.795,5.799,3,O+P-,1556,1,T3_mouth.bmp,T1_youth.bmp
ds006239_sub-1078,ds006239,sub-1078,ses-1,task-ReadPhon,acq-D2S0301,run-2,212.594,5.816,1,O+P+,1237,1,T3_toss.bmp,T0_moss.bmp
ds006239_sub-1078,ds006239,sub-1078,ses-1,task-ReadPhon,acq-D2S0301,run-2,218.41,5.299,5,perceptual,1278,1,_F3_f6.bmp,_F1_f6.bmp
ds006239_sub-1078,ds006239,sub-1078,ses-1,task-ReadPhon,acq-D2S0301,run-2,223.709,5.8,4,O-P-,1499,1,T3_rule.bmp,T0_blur.bmp
ds006239_sub-1078,ds006239,sub-1078,ses-1,task-ReadPhon,acq-D2S0301,run-2,229.509,5.316,3,O+P-,2235,1,T3_tomb.bmp,T2_comb.bmp
ds006239_sub-1078,ds006239,sub-1078,ses-1,task-ReadPhon,acq-D2S0301,run-2,234.825,5.799,5,perceptual,1479,1,_F3_o6.bmp,_F0_o6.bmp
ds006239_sub-1078,ds006239,sub-1078,ses-1,task-ReadPhon,acq-D2S0301,run-2,240.624,4.816,4,O-P-,1151,1,T3_june.bmp,T1_loop.bmp
ds006239_sub-1078,ds006239,sub-1078,ses-1,task-ReadPhon,acq-D2S0301,run-2,245.44,5.299,2,O-P+,1335,1,T3_warm.bmp,T2_form.bmp
ds006239_sub-1078,ds006239,sub-1078,ses-1,task-ReadPhon,acq-D2S0301,run-2,250.739,5.299,4,O-P-,1236,1,T3_rum.bmp,T2_touch.bmp
ds006239_sub-1078,ds006239,sub-1078,ses-1,task-ReadPhon,acq-D2S0301,run-2,256.038,4.8,3,O+P-,1169,1,T3_gross.bmp,T1_moss.bmp
ds006239_sub-1078,ds006239,sub-1078,ses-1,task-ReadPhon,acq-D2S0301,run-2,260.838,4.799,4,O-P-,1353,1,T3_glow.bmp,T0_stove.bmp
ds006239_sub-1078,ds006239,sub-1078,ses-1,task-ReadPhon,acq-D2S0301,run-2,265.637,5.816,4,O-P-,1322,1,T3_wheel.bmp,T2_sneak.bmp
ds006239_sub-1078,ds006239,sub-1078,ses-1,task-ReadPhon,acq-D2S0301,run-2,271.453,5.299,3,O+P-,1746,1,T3_cow.bmp,T0_glow.bmp
ds006239_sub-1078,ds006239,sub-1078,ses-1,task-ReadPhon,acq-D2S0301,run-2,276.752,5.3,1,O+P+,1295,1,T3_pile.bmp,T1_mile.bmp
ds006239_sub-1078,ds006239,sub-1078,ses-1,task-ReadPhon,acq-D2S0301,run-2,282.052,5.799,2,O-P+,1275,1,T3_cheek.bmp,T1_sneak.bmp
ds006239_sub-1078,ds006239,sub-1078,ses-1,task-ReadPhon,acq-D2S0301,run-2,287.851,5.316,4,O-P-,1236,1,T3_youth.bmp,T0_hint.bmp
ds006239_sub-1078,ds006239,sub-1078,ses-1,task-ReadPhon,acq-D2S0301,run-2,293.167,4.799,2,O-P+,1744,1,T3_thief.bmp,T0_beef.bmp
ds006239_sub-1078,ds006239,sub-1078,ses-1,task-ReadPhon,acq-D2S0301,run-2,297.966,5.3,8,control,1193,1,Gen/_Fix_Green.bmp,Gen/_Fix_Red.bmp
ds006239_sub-1078,ds006239,sub-1078,ses-1,task-ReadPhon,acq-D2S0301,run-2,303.266,5.799,3,O+P-,1381,1,T3_swarm.bmp,T2_harm.bmp
ds006239_sub-1078,ds006239,sub-1078,ses-1,task-ReadPhon,acq-D2S0301,run-2,309.065,4.799,6,perceptual,1462,1,_F3_o6.bmp,_F2_b6.bmp
ds006239_sub-1078,ds006239,sub-1078,ses-1,task-ReadPhon,acq-D2S0301,run-2,313.864,5.3,3,O+P-,1255,1,T3_both.bmp,T1_cloth.bmp
ds006239_sub-1078,ds006239,sub-1078,ses-1,task-ReadPhon,acq-D2S0301,run-2,319.164,4.799,8,control,1108,1,Gen/_Fix_Green.bmp,Gen/_Fix_Red.bmp
ds006239_sub-1078,ds006239,sub-1078,ses-1,task-ReadPhon,acq-D2S0301,run-2,323.963,5.799,4,O-P-,1164,1,T3_cream.bmp,T1_swarm.bmp
ds006239_sub-1078,ds006239,sub-1078,ses-1,task-ReadPhon,acq-D2S0301,run-2,329.762,5.3,3,O+P-,1317,1,T3_ford.bmp,T0_word.bmp
ds006239_sub-1078,ds006239,sub-1078,ses-1,task-ReadPhon,acq-D2S0301,run-2,335.062,5.299,1,O+P+,1258,0,T3_vase.bmp,T2_chase.bmp
ds006239_sub-1078,ds006239,sub-1078,ses-1,task-ReadPhon,acq-D2S0301,run-2,340.361,5.316,6,perceptual,1366,1,_F3_f6.bmp,_F1_d6.bmp
ds006239_sub-1078,ds006239,sub-1078,ses-1,task-ReadPhon,acq-D2S0301,run-2,345.677,5.799,1,O+P+,1234,1,T3_flood.bmp,T0_blood.bmp
ds006239_sub-1078,ds006239,sub-1078,ses-1,task-ReadPhon,acq-D2S0301,run-2,351.476,4.799,2,O-P+,1315,1,T3_quart.bmp,T2_port.bmp
ds006239_sub-1078,ds006239,sub-1078,ses-1,task-ReadPhon,acq-D2S0301,run-2,356.275,4.8,3,O+P-,1252,1,T3_swap.bmp,T1_gap.bmp
ds006239_sub-1078,ds006239,sub-1078,ses-1,task-ReadPhon,acq-D2S0301,run-2,361.075,4.816,1,O+P+,1180,0,T3_frost.bmp,T0_cost.bmp
ds006239_sub-1078,ds006239,sub-1078,ses-1,task-ReadPhon,acq-D2S0301,run-2,365.891,5.799,1,O+P+,1220,1,T3_harm.bmp,T0_farm.bmp
ds006239_sub-1078,ds006239,sub-1078,ses-1,task-ReadPhon,acq-D2S0301,run-2,371.69,5.816,3,O+P-,1253,1,T3_scratch.bmp,T2_watch.bmp
ds006239_sub-1078,ds006239,sub-1078,ses-1,task-ReadPhon,acq-D2S0301,run-2,377.506,5.333,7,control,1309,1,Gen/_Fix_Green.bmp,Gen/_Fix_Green.bmp
ds006239_sub-1079,ds006239,sub-1079,ses-1,task-ReadPhon,acq-D2S0201,run-1,1.497,4.799,3,O+P-,1335,0,T3_post.bmp,T1_cost.bmp
ds006239_sub-1079,ds006239,sub-1079,ses-1,task-ReadPhon,acq-D2S0201,run-1,6.296,5.3,5,perceptual,1120,1,_F3_o4.bmp,_F2_o4.bmp
ds006239_sub-1079,ds006239,sub-1079,ses-1,task-ReadPhon,acq-D2S0201,run-1,11.596,4.799,2,O-P+,1396,1,T3_rum.bmp,T1_numb.bmp
ds006239_sub-1079,ds006239,sub-1079,ses-1,task-ReadPhon,acq-D2S0201,run-1,16.395,5.816,7,control,965,1,Gen/_Fix_Green.bmp,Gen/_Fix_Green.bmp
ds006239_sub-1079,ds006239,sub-1079,ses-1,task-ReadPhon,acq-D2S0201,run-1,22.211,4.799,6,perceptual,1149,1,_F3_s6.bmp,_F0_e6.bmp
ds006239_sub-1079,ds006239,sub-1079,ses-1,task-ReadPhon,acq-D2S0201,run-1,27.01,4.816,1,O+P+,1446,0,T3_fought.bmp,T1_sought.bmp
ds006239_sub-1079,ds006239,sub-1079,ses-1,task-ReadPhon,acq-D2S0201,run-1,31.826,4.8,1,O+P+,1582,1,T3_scheme.bmp,T2_theme.bmp
ds006239_sub-1079,ds006239,sub-1079,ses-1,task-ReadPhon,acq-D2S0201,run-1,36.626,4.799,5,perceptual,1118,1,_F3_f4.bmp,_F0_f4.bmp
ds006239_sub-1079,ds006239,sub-1079,ses-1,task-ReadPhon,acq-D2S0201,run-1,41.425,5.299,1,O+P+,1343,1,T3_stool.bmp,T0_fool.bmp
ds006239_sub-1079,ds006239,sub-1079,ses-1,task-ReadPhon,acq-D2S0201,run-1,46.724,5.316,1,O+P+,1212,1,T3_soak.bmp,T0_oak.bmp
ds006239_sub-1079,ds006239,sub-1079,ses-1,task-ReadPhon,acq-D2S0201,run-1,52.04,5.3,3,O+P-,1200,1,T3_threat.bmp,T1_wheat.bmp
ds006239_sub-1079,ds006239,sub-1079,ses-1,task-ReadPhon,acq-D2S0201,run-1,57.34,4.799,1,O+P+,1204,1,T3_thread.bmp,T0_spread.bmp
ds006239_sub-1079,ds006239,sub-1079,ses-1,task-ReadPhon,acq-D2S0201,run-1,62.139,5.799,2,O-P+,1397,1,T3_pile.bmp,T1_trial.bmp
ds006239_sub-1079,ds006239,sub-1079,ses-1,task-ReadPhon,acq-D2S0201,run-1,67.938,5.8,4,O-P-,1414,1,T3_swap.bmp,T2_watch.bmp
ds006239_sub-1079,ds006239,sub-1079,ses-1,task-ReadPhon,acq-D2S0201,run-1,73.738,5.816,8,control,1063,1,Gen/_Fix_Green.bmp,Gen/_Fix_Red.bmp
ds006239_sub-1079,ds006239,sub-1079,ses-1,task-ReadPhon,acq-D2S0201,run-1,79.554,5.299,4,O-P-,1127,1,T3_tough.bmp,T1_dull.bmp
ds006239_sub-1079,ds006239,sub-1079,ses-1,task-ReadPhon,acq-D2S0201,run-1,84.853,5.799,6,perceptual,1219,1,_F3_o4.bmp,_F2_b4.bmp
ds006239_sub-1079,ds006239,sub-1079,ses-1,task-ReadPhon,acq-D2S0201,run-1,90.652,5.799,1,O+P+,1427,1,T3_sweep.bmp,T0_creep.bmp
ds006239_sub-1079,ds006239,sub-1079,ses-1,task-ReadPhon,acq-D2S0201,run-1,96.451,5.8,6,perceptual,1236,1,_F3_d6.bmp,_F1_o6.bmp
ds006239_sub-1079,ds006239,sub-1079,ses-1,task-ReadPhon,acq-D2S0201,run-1,102.251,4.816,8,control,1181,1,Gen/_Fix_Green.bmp,Gen/_Fix_Red.bmp
ds006239_sub-1079,ds006239,sub-1079,ses-1,task-ReadPhon,acq-D2S0201,run-1,107.067,4.799,2,O-P+,1070,1,T3_stroke.bmp,T1_soak.bmp
ds006239_sub-1079,ds006239,sub-1079,ses-1,task-ReadPhon,acq-D2S0201,run-1,111.866,5.283,4,O-P-,1021,1,T3_trial.bmp,T0_fall.bmp
ds006239_sub-1079,ds006239,sub-1079,ses-1,task-ReadPhon,acq-D2S0201,run-1,117.149,5.799,5,perceptual,1323,1,_F3_s6.bmp,_F0_s6.bmp
ds006239_sub-1079,ds006239,sub-1079,ses-1,task-ReadPhon,acq-D2S0201,run-1,122.948,4.799,7,control,1116,1,Gen/_Fix_Green.bmp,Gen/_Fix_Green.bmp
ds006239_sub-1079,ds006239,sub-1079,ses-1,task-ReadPhon,acq-D2S0201,run-1,127.747,4.8,8,control,1373,1,Gen/_Fix_Red.bmp,Gen/_Fix_Green.bmp
ds006239_sub-1079,ds006239,sub-1079,ses-1,task-ReadPhon,acq-D2S0201,run-1,132.547,5.316,7,control,925,1,Gen/_Fix_Red.bmp,Gen/_Fix_Red.bmp
ds006239_sub-1079,ds006239,sub-1079,ses-1,task-ReadPhon,acq-D2S0201,run-1,137.863,4.799,1,O+P+,1153,1,T3_beef.bmp,T1_reef.bmp
ds006239_sub-1079,ds006239,sub-1079,ses-1,task-ReadPhon,acq-D2S0201,run-1,142.662,5.799,3,O+P-,1225,1,T3_wart.bmp,T1_smart.bmp
ds006239_sub-1079,ds006239,sub-1079,ses-1,task-ReadPhon,acq-D2S0201,run-1,148.461,5.799,3,O+P-,1507,0,T3_dose.bmp,T0_pose.bmp
ds006239_sub-1079,ds006239,sub-1079,ses-1,task-ReadPhon,acq-D2S0201,run-1,154.26,4.8,3,O+P-,1843,1,T3_touch.bmp,T1_couch.bmp
ds006239_sub-1079,ds006239,sub-1079,ses-1,task-ReadPhon,acq-D2S0201,run-1,159.06,4.833,6,perceptual,1067,1,_F3_e6.bmp,_F0_s6.bmp
ds006239_sub-1079,ds006239,sub-1079,ses-1,task-ReadPhon,acq-D2S0201,run-1,163.893,5.799,8,control,1267,1,Gen/_Fix_Green.bmp,Gen/_Fix_Red.bmp
ds006239_sub-1079,ds006239,sub-1079,ses-1,task-ReadPhon,acq-D2S0201,run-1,169.692,5.799,7,control,1171,1,Gen/_Fix_Green.bmp,Gen/_Fix_Green.bmp
ds006239_sub-1079,ds006239,sub-1079,ses-1,task-ReadPhon,acq-D2S0201,run-1,175.491,5.299,8,control,813,1,Gen/_Fix_Red.bmp,Gen/_Fix_Green.bmp
ds006239_sub-1079,ds006239,sub-1079,ses-1,task-ReadPhon,acq-D2S0201,run-1,180.79,4.8,7,control,1009,1,Gen/_Fix_Red.bmp,Gen/_Fix_Red.bmp
ds006239_sub-1079,ds006239,sub-1079,ses-1,task-ReadPhon,acq-D2S0201,run-1,185.59,5.299,4,O-P-,1177,1,T3_port.bmp,T1_warm.bmp
ds006239_sub-1079,ds006239,sub-1079,ses-1,task-ReadPhon,acq-D2S0201,run-1,190.889,5.816,2,O-P+,1118,1,T3_june.bmp,T2_noon.bmp
ds006239_sub-1079,ds006239,sub-1079,ses-1,task-ReadPhon,acq-D2S0201,run-1,196.705,4.799,4,O-P-,1623,0,T3_wreath.bmp,T0_leap.bmp
ds006239_sub-1079,ds006239,sub-1079,ses-1,task-ReadPhon,acq-D2S0201,run-1,201.504,4.8,5,perceptual,1016,1,_F3_b6.bmp,_F2_b6.bmp
ds006239_sub-1079,ds006239,sub-1079,ses-1,task-ReadPhon,acq-D2S0201,run-1,206.304,5.299,3,O+P-,2311,1,T3_glove.bmp,T0_stove.bmp
ds006239_sub-1079,ds006239,sub-1079,ses-1,task-ReadPhon,acq-D2S0201,run-1,211.603,5.799,1,O+P+,1308,1,T3_numb.bmp,T1_crumb.bmp
ds006239_sub-1079,ds006239,sub-1079,ses-1,task-ReadPhon,acq-D2S0201,run-1,217.402,4.816,3,O+P-,3302,0,T3_stood.bmp,T2_flood.bmp
ds006239_sub-1079,ds006239,sub-1079,ses-1,task-ReadPhon,acq-D2S0201,run-1,222.218,5.3,5,perceptual,1966,1,_F3_s4.bmp,_F1_s4.bmp
ds006239_sub-1079,ds006239,sub-1079,ses-1,task-ReadPhon,acq-D2S0201,run-1,227.518,5.799,4,O-P-,4303,0,T3_smart.bmp,T1_drought.bmp
ds006239_sub-1079,ds006239,sub-1079,ses-1,task-ReadPhon,acq-D2S0201,run-1,233.317,5.299,2,O-P+,1282,1,T3_stir.bmp,T2_blur.bmp
ds006239_sub-1079,ds006239,sub-1079,ses-1,task-ReadPhon,acq-D2S0201,run-1,238.616,5.3,8,control,1127,1,Gen/_Fix_Red.bmp,Gen/_Fix_Green.bmp
ds006239_sub-1079,ds006239,sub-1079,ses-1,task-ReadPhon,acq-D2S0201,run-1,243.916,5.282,7,control,1004,1,Gen/_Fix_Red.bmp,Gen/_Fix_Red.bmp
ds006239_sub-1079,ds006239,sub-1079,ses-1,task-ReadPhon,acq-D2S0201,run-1,249.198,5.816,3,O+P-,1449,1,T3_pool.bmp,T0_wool.bmp
ds006239_sub-1079,ds006239,sub-1079,ses-1,task-ReadPhon,acq-D2S0201,run-1,255.014,5.299,3,O+P-,1201,1,T3_fought.bmp,T2_drought.bmp
ds006239_sub-1079,ds006239,sub-1079,ses-1,task-ReadPhon,acq-D2S0201,run-1,260.313,4.8,2,O-P+,1526,1,T3_flight.bmp,T1_spite.bmp
ds006239_sub-1079,ds006239,sub-1079,ses-1,task-ReadPhon,acq-D2S0201,run-1,265.113,5.299,2,O-P+,1950,1,T3_scheme.bmp,T0_cream.bmp
ds006239_sub-1079,ds006239,sub-1079,ses-1,task-ReadPhon,acq-D2S0201,run-1,270.412,5.299,6,perceptual,1051,1,_F3_b6.bmp,_F2_f6.bmp
ds006239_sub-1079,ds006239,sub-1079,ses-1,task-ReadPhon,acq-D2S0201,run-1,275.711,5.816,4,O-P-,1616,0,T3_ghost.bmp,T0_pose.bmp
ds006239_sub-1079,ds006239,sub-1079,ses-1,task-ReadPhon,acq-D2S0201,run-1,281.527,4.8,4,O-P-,1200,1,T3_grace.bmp,T1_fence.bmp
ds006239_sub-1079,ds006239,sub-1079,ses-1,task-ReadPhon,acq-D2S0201,run-1,286.327,4.816,3,O+P-,1344,1,T3_dull.bmp,T2_bull.bmp
ds006239_sub-1079,ds006239,sub-1079,ses-1,task-ReadPhon,acq-D2S0201,run-1,291.143,4.799,4,O-P-,1224,1,T3_ford.bmp,T2_rod.bmp
ds006239_sub-1079,ds006239,sub-1079,ses-1,task-ReadPhon,acq-D2S0201,run-1,295.942,5.299,1,O+P+,1433,0,T3_strap.bmp,T2_gap.bmp
ds006239_sub-1079,ds006239,sub-1079,ses-1,task-ReadPhon,acq-D2S0201,run-1,301.241,5.3,4,O-P-,1110,1,T3_stamp.bmp,T2_tomb.bmp
ds006239_sub-1079,ds006239,sub-1079,ses-1,task-ReadPhon,acq-D2S0201,run-1,306.541,5.299,2,O-P+,1034,1,T3_wheel.bmp,T0_deal.bmp
ds006239_sub-1079,ds006239,sub-1079,ses-1,task-ReadPhon,acq-D2S0201,run-1,311.84,5.316,2,O-P+,1151,0,T3_leap.bmp,T2_sweep.bmp
ds006239_sub-1079,ds006239,sub-1079,ses-1,task-ReadPhon,acq-D2S0201,run-1,317.156,4.799,4,O-P-,1147,1,T3_fault.bmp,T2_note.bmp
ds006239_sub-1079,ds006239,sub-1079,ses-1,task-ReadPhon,acq-D2S0201,run-1,321.955,5.8,1,O+P+,1100,0,T3_bull.bmp,T2_full.bmp
ds006239_sub-1079,ds006239,sub-1079,ses-1,task-ReadPhon,acq-D2S0201,run-1,327.755,5.799,2,O-P+,1132,0,T3_chase.bmp,T2_grace.bmp
ds006239_sub-1079,ds006239,sub-1079,ses-1,task-ReadPhon,acq-D2S0201,run-1,333.554,4.799,2,O-P+,949,0,T3_float.bmp,T0_note.bmp
ds006239_sub-1079,ds006239,sub-1079,ses-1,task-ReadPhon,acq-D2S0201,run-1,338.353,5.816,2,O-P+,1254,1,T3_bride.bmp,T0_dried.bmp
ds006239_sub-1079,ds006239,sub-1079,ses-1,task-ReadPhon,acq-D2S0201,run-1,344.169,5.799,4,O-P-,974,1,T3_thief.bmp,T0_plead.bmp
ds006239_sub-1079,ds006239,sub-1079,ses-1,task-ReadPhon,acq-D2S0201,run-1,349.968,5.3,1,O+P+,1263,1,T3_bluff.bmp,T2_puff.bmp
ds006239_sub-1079,ds006239,sub-1079,ses-1,task-ReadPhon,acq-D2S0201,run-1,355.268,5.799,5,perceptual,1099,1,_F3_b4.bmp,_F1_b4.bmp
ds006239_sub-1079,ds006239,sub-1079,ses-1,task-ReadPhon,acq-D2S0201,run-1,361.067,5.799,1,O+P+,1284,1,T3_shove.bmp,T1_glove.bmp
ds006239_sub-1079,ds006239,sub-1079,ses-1,task-ReadPhon,acq-D2S0201,run-1,366.866,5.316,6,perceptual,1365,1,_F3_d4.bmp,_F1_o4.bmp
ds006239_sub-1079,ds006239,sub-1079,ses-1,task-ReadPhon,acq-D2S0201,run-1,372.182,5.783,3,O+P-,1041,1,T3_stamp.bmp,T2_swamp.bmp
ds006239_sub-1079,ds006239,sub-1079,ses-1,task-ReadPhon,acq-D2S0201,run-1,377.965,4.816,3,O+P-,1226,1,T3_pint.bmp,T0_hint.bmp
ds006239_sub-1079,ds006239,sub-1079,ses-1,task-ReadPhon,acq-D2S0301,run-2,1.489,5.816,6,perceptual,1031,1,_F3_f4.bmp,_F2_d4.bmp
ds006239_sub-1079,ds006239,sub-1079,ses-1,task-ReadPhon,acq-D2S0301,run-2,7.305,5.799,2,O-P+,1111,1,T3_fall.bmp,T1_crawl.bmp
ds006239_sub-1079,ds006239,sub-1079,ses-1,task-ReadPhon,acq-D2S0301,run-2,13.104,4.8,4,O-P-,1672,1,T3_gross.bmp,T1_post.bmp
ds006239_sub-1079,ds006239,sub-1079,ses-1,task-ReadPhon,acq-D2S0301,run-2,17.904,4.799,2,O-P+,1472,1,T3_tense.bmp,T0_fence.bmp
ds006239_sub-1079,ds006239,sub-1079,ses-1,task-ReadPhon,acq-D2S0301,run-2,22.703,5.299,2,O-P+,1169,0,T3_soup.bmp,T1_loop.bmp
ds006239_sub-1079,ds006239,sub-1079,ses-1,task-ReadPhon,acq-D2S0301,run-2,28.002,5.316,6,perceptual,1038,1,_F3_e4.bmp,_F0_s4.bmp
ds006239_sub-1079,ds006239,sub-1079,ses-1,task-ReadPhon,acq-D2S0301,run-2,33.318,4.817,6,perceptual,2009,1,_F3_b4.bmp,_F0_f4.bmp
ds006239_sub-1079,ds006239,sub-1079,ses-1,task-ReadPhon,acq-D2S0301,run-2,38.135,5.299,4,O-P-,1474,1,T3_pool.bmp,T2_tooth.bmp
ds006239_sub-1079,ds006239,sub-1079,ses-1,task-ReadPhon,acq-D2S0301,run-2,43.434,5.799,4,O-P-,918,1,T3_both.bmp,T2_stroke.bmp
ds006239_sub-1079,ds006239,sub-1079,ses-1,task-ReadPhon,acq-D2S0301,run-2,49.233,4.799,1,O+P+,1447,1,T3_quart.bmp,T1_wart.bmp
ds006239_sub-1079,ds006239,sub-1079,ses-1,task-ReadPhon,acq-D2S0301,run-2,54.032,5.316,7,control,984,1,Gen/_Fix_Red.bmp,Gen/_Fix_Red.bmp
ds006239_sub-1079,ds006239,sub-1079,ses-1,task-ReadPhon,acq-D2S0301,run-2,59.348,5.3,5,perceptual,1148,1,_F3_d4.bmp,_F0_d4.bmp
ds006239_sub-1079,ds006239,sub-1079,ses-1,task-ReadPhon,acq-D2S0301,run-2,64.648,5.799,5,perceptual,720,1,_F3_e4.bmp,_F2_e4.bmp
ds006239_sub-1079,ds006239,sub-1079,ses-1,task-ReadPhon,acq-D2S0301,run-2,70.447,4.799,3,O+P-,2369,1,T3_smooth.bmp,T0_tooth.bmp
ds006239_sub-1079,ds006239,sub-1079,ses-1,task-ReadPhon,acq-D2S0301,run-2,75.246,4.8,2,O-P+,1314,0,T3_stool.bmp,T1_rule.bmp
ds006239_sub-1079,ds006239,sub-1079,ses-1,task-ReadPhon,acq-D2S0301,run-2,80.046,5.316,8,control,1482,1,Gen/_Fix_Red.bmp,Gen/_Fix_Green.bmp
ds006239_sub-1079,ds006239,sub-1079,ses-1,task-ReadPhon,acq-D2S0301,run-2,85.362,5.299,4,O-P-,1110,1,T3_flight.bmp,T0_threat.bmp
ds006239_sub-1079,ds006239,sub-1079,ses-1,task-ReadPhon,acq-D2S0301,run-2,90.661,5.299,2,O-P+,1643,1,T3_bluff.bmp,T2_tough.bmp
ds006239_sub-1079,ds006239,sub-1079,ses-1,task-ReadPhon,acq-D2S0301,run-2,95.96,5.8,6,perceptual,704,1,_F3_s4.bmp,_F1_e4.bmp
ds006239_sub-1079,ds006239,sub-1079,ses-1,task-ReadPhon,acq-D2S0301,run-2,101.76,5.799,2,O-P+,976,1,T3_halt.bmp,T0_fault.bmp
ds006239_sub-1079,ds006239,sub-1079,ses-1,task-ReadPhon,acq-D2S0301,run-2,107.559,4.816,4,O-P-,1137,1,T3_dried.bmp,T1_stood.bmp
ds006239_sub-1079,ds006239,sub-1079,ses-1,task-ReadPhon,acq-D2S0301,run-2,112.375,4.799,1,O+P+,1065,1,T3_brow.bmp,T2_cow.bmp
ds006239_sub-1079,ds006239,sub-1079,ses-1,task-ReadPhon,acq-D2S0301,run-2,117.174,5.783,1,O+P+,1106,1,T3_goat.bmp,T1_float.bmp
ds006239_sub-1079,ds006239,sub-1079,ses-1,task-ReadPhon,acq-D2S0301,run-2,122.957,4.799,1,O+P+,1011,1,T3_glide.bmp,T2_bride.bmp
ds006239_sub-1079,ds006239,sub-1079,ses-1,task-ReadPhon,acq-D2S0301,run-2,127.756,5.299,7,control,788,1,Gen/_Fix_Red.bmp,Gen/_Fix_Red.bmp
ds006239_sub-1079,ds006239,sub-1079,ses-1,task-ReadPhon,acq-D2S0301,run-2,133.055,4.817,8,control,1137,1,Gen/_Fix_Red.bmp,Gen/_Fix_Green.bmp
ds006239_sub-1079,ds006239,sub-1079,ses-1,task-ReadPhon,acq-D2S0301,run-2,137.872,5.799,3,O+P-,1185,0,T3_plead.bmp,T2_spread.bmp
ds006239_sub-1079,ds006239,sub-1079,ses-1,task-ReadPhon,acq-D2S0301,run-2,143.671,4.799,5,perceptual,1097,1,_F3_d6.bmp,_F1_d6.bmp
ds006239_sub-1079,ds006239,sub-1079,ses-1,task-ReadPhon,acq-D2S0301,run-2,148.47,5.299,2,O-P+,1082,1,T3_roast.bmp,T2_ghost.bmp
ds006239_sub-1079,ds006239,sub-1079,ses-1,task-ReadPhon,acq-D2S0301,run-2,153.769,4.8,5,perceptual,1247,1,_F3_e6.bmp,_F2_e6.bmp
ds006239_sub-1079,ds006239,sub-1079,ses-1,task-ReadPhon,acq-D2S0301,run-2,158.569,5.833,8,control,967,1,Gen/_Fix_Red.bmp,Gen/_Fix_Green.bmp
ds006239_sub-1079,ds006239,sub-1079,ses-1,task-ReadPhon,acq-D2S0301,run-2,164.402,5.799,2,O-P+,1343,1,T3_odd.bmp,T0_rod.bmp
ds006239_sub-1079,ds006239,sub-1079,ses-1,task-ReadPhon,acq-D2S0301,run-2,170.201,5.299,1,O+P+,1087,1,T3_spoon.bmp,T1_noon.bmp
ds006239_sub-1079,ds006239,sub-1079,ses-1,task-ReadPhon,acq-D2S0301,run-2,175.5,5.799,7,control,764,1,Gen/_Fix_Green.bmp,Gen/_Fix_Green.bmp
ds006239_sub-1079,ds006239,sub-1079,ses-1,task-ReadPhon,acq-D2S0301,run-2,181.299,4.8,7,control,1053,1,Gen/_Fix_Green.bmp,Gen/_Fix_Green.bmp
ds006239_sub-1079,ds006239,sub-1079,ses-1,task-ReadPhon,acq-D2S0301,run-2,186.099,4.816,7,control,3302,0,Gen/_Fix_Red.bmp,Gen/_Fix_Red.bmp
ds006239_sub-1079,ds006239,sub-1079,ses-1,task-ReadPhon,acq-D2S0301,run-2,190.915,5.799,8,control,1166,1,Gen/_Fix_Green.bmp,Gen/_Fix_Red.bmp
ds006239_sub-1079,ds006239,sub-1079,ses-1,task-ReadPhon,acq-D2S0301,run-2,196.714,4.799,3,O+P-,1902,0,T3_breath.bmp,T0_wreath.bmp
ds006239_sub-1079,ds006239,sub-1079,ses-1,task-ReadPhon,acq-D2S0301,run-2,201.513,5.3,1,O+P+,1887,0,T3_neat.bmp,T2_wheat.bmp
ds006239_sub-1079,ds006239,sub-1079,ses-1,task-ReadPhon,acq-D2S0301,run-2,206.813,5.799,3,O+P-,971,1,T3_mouth.bmp,T1_youth.bmp
ds006239_sub-1079,ds006239,sub-1079,ses-1,task-ReadPhon,acq-D2S0301,run-2,212.612,5.816,1,O+P+,1452,0,T3_toss.bmp,T0_moss.bmp
ds006239_sub-1079,ds006239,sub-1079,ses-1,task-ReadPhon,acq-D2S0301,run-2,218.428,5.299,5,perceptual,1100,1,_F3_f6.bmp,_F1_f6.bmp
ds006239_sub-1079,ds006239,sub-1079,ses-1,task-ReadPhon,acq-D2S0301,run-2,223.727,5.799,4,O-P-,1033,1,T3_rule.bmp,T0_blur.bmp
ds006239_sub-1079,ds006239,sub-1079,ses-1,task-ReadPhon,acq-D2S0301,run-2,229.526,5.3,3,O+P-,1466,1,T3_tomb.bmp,T2_comb.bmp
ds006239_sub-1079,ds006239,sub-1079,ses-1,task-ReadPhon,acq-D2S0301,run-2,234.826,5.799,5,perceptual,1294,1,_F3_o6.bmp,_F0_o6.bmp
ds006239_sub-1079,ds006239,sub-1079,ses-1,task-ReadPhon,acq-D2S0301,run-2,240.625,4.816,4,O-P-,1639,1,T3_june.bmp,T1_loop.bmp
ds006239_sub-1079,ds006239,sub-1079,ses-1,task-ReadPhon,acq-D2S0301,run-2,245.441,5.283,2,O-P+,855,0,T3_warm.bmp,T2_form.bmp
ds006239_sub-1079,ds006239,sub-1079,ses-1,task-ReadPhon,acq-D2S0301,run-2,250.724,5.299,4,O-P-,1029,1,T3_rum.bmp,T2_touch.bmp
ds006239_sub-1079,ds006239,sub-1079,ses-1,task-ReadPhon,acq-D2S0301,run-2,256.023,4.799,3,O+P-,1137,1,T3_gross.bmp,T1_moss.bmp
ds006239_sub-1079,ds006239,sub-1079,ses-1,task-ReadPhon,acq-D2S0301,run-2,260.822,4.8,4,O-P-,1754,1,T3_glow.bmp,T0_stove.bmp
ds006239_sub-1079,ds006239,sub-1079,ses-1,task-ReadPhon,acq-D2S0301,run-2,265.622,5.816,4,O-P-,1130,1,T3_wheel.bmp,T2_sneak.bmp
ds006239_sub-1079,ds006239,sub-1079,ses-1,task-ReadPhon,acq-D2S0301,run-2,271.438,5.299,3,O+P-,931,1,T3_cow.bmp,T0_glow.bmp
ds006239_sub-1079,ds006239,sub-1079,ses-1,task-ReadPhon,acq-D2S0301,run-2,276.737,5.299,1,O+P+,1143,1,T3_pile.bmp,T1_mile.bmp
ds006239_sub-1079,ds006239,sub-1079,ses-1,task-ReadPhon,acq-D2S0301,run-2,282.036,5.799,2,O-P+,1340,1,T3_cheek.bmp,T1_sneak.bmp
ds006239_sub-1079,ds006239,sub-1079,ses-1,task-ReadPhon,acq-D2S0301,run-2,287.835,5.3,4,O-P-,1013,1,T3_youth.bmp,T0_hint.bmp
ds006239_sub-1079,ds006239,sub-1079,ses-1,task-ReadPhon,acq-D2S0301,run-2,293.135,4.832,2,O-P+,1249,1,T3_thief.bmp,T0_beef.bmp
ds006239_sub-1079,ds006239,sub-1079,ses-1,task-ReadPhon,acq-D2S0301,run-2,297.967,5.3,8,control,1081,1,Gen/_Fix_Green.bmp,Gen/_Fix_Red.bmp
ds006239_sub-1079,ds006239,sub-1079,ses-1,task-ReadPhon,acq-D2S0301,run-2,303.267,5.799,3,O+P-,1109,1,T3_swarm.bmp,T2_harm.bmp
ds006239_sub-1079,ds006239,sub-1079,ses-1,task-ReadPhon,acq-D2S0301,run-2,309.066,4.799,6,perceptual,1910,1,_F3_o6.bmp,_F2_b6.bmp
ds006239_sub-1079,ds006239,sub-1079,ses-1,task-ReadPhon,acq-D2S0301,run-2,313.865,5.3,3,O+P-,1231,1,T3_both.bmp,T1_cloth.bmp
ds006239_sub-1079,ds006239,sub-1079,ses-1,task-ReadPhon,acq-D2S0301,run-2,319.165,4.816,8,control,1083,1,Gen/_Fix_Green.bmp,Gen/_Fix_Red.bmp
ds006239_sub-1079,ds006239,sub-1079,ses-1,task-ReadPhon,acq-D2S0301,run-2,323.981,5.799,4,O-P-,1059,1,T3_cream.bmp,T1_swarm.bmp
ds006239_sub-1079,ds006239,sub-1079,ses-1,task-ReadPhon,acq-D2S0301,run-2,329.78,5.299,3,O+P-,1164,1,T3_ford.bmp,T0_word.bmp
ds006239_sub-1079,ds006239,sub-1079,ses-1,task-ReadPhon,acq-D2S0301,run-2,335.079,5.3,1,O+P+,1001,1,T3_vase.bmp,T2_chase.bmp
ds006239_sub-1079,ds006239,sub-1079,ses-1,task-ReadPhon,acq-D2S0301,run-2,340.379,5.316,6,perceptual,1117,1,_F3_f6.bmp,_F1_d6.bmp
ds006239_sub-1079,ds006239,sub-1079,ses-1,task-ReadPhon,acq-D2S0301,run-2,345.695,5.799,1,O+P+,1474,1,T3_flood.bmp,T0_blood.bmp
ds006239_sub-1079,ds006239,sub-1079,ses-1,task-ReadPhon,acq-D2S0301,run-2,351.494,4.799,2,O-P+,1130,0,T3_quart.bmp,T2_port.bmp
ds006239_sub-1079,ds006239,sub-1079,ses-1,task-ReadPhon,acq-D2S0301,run-2,356.293,4.8,3,O+P-,1771,1,T3_swap.bmp,T1_gap.bmp
ds006239_sub-1079,ds006239,sub-1079,ses-1,task-ReadPhon,acq-D2S0301,run-2,361.093,4.799,1,O+P+,1956,1,T3_frost.bmp,T0_cost.bmp
ds006239_sub-1079,ds006239,sub-1079,ses-1,task-ReadPhon,acq-D2S0301,run-2,365.892,5.799,1,O+P+,1012,1,T3_harm.bmp,T0_farm.bmp
ds006239_sub-1079,ds006239,sub-1079,ses-1,task-ReadPhon,acq-D2S0301,run-2,371.691,5.816,3,O+P-,2629,1,T3_scratch.bmp,T2_watch.bmp
ds006239_sub-1079,ds006239,sub-1079,ses-1,task-ReadPhon,acq-D2S0301,run-2,377.507,5.299,7,control,1124,1,Gen/_Fix_Green.bmp,Gen/_Fix_Green.bmp
ds006239_sub-1080,ds006239,sub-1080,ses-1,task-ReadPhon,acq-D2S0201,run-1,1.509,4.799,3,O+P-,2699,1,T3_post.bmp,T1_cost.bmp
ds006239_sub-1080,ds006239,sub-1080,ses-1,task-ReadPhon,acq-D2S0201,run-1,6.308,5.316,5,perceptual,1244,1,_F3_o4.bmp,_F2_o4.bmp
ds006239_sub-1080,ds006239,sub-1080,ses-1,task-ReadPhon,acq-D2S0201,run-1,11.624,4.8,2,O-P+,1216,1,T3_rum.bmp,T1_numb.bmp
ds006239_sub-1080,ds006239,sub-1080,ses-1,task-ReadPhon,acq-D2S0201,run-1,16.424,5.799,7,control,1216,1,Gen/_Fix_Green.bmp,Gen/_Fix_Green.bmp
ds006239_sub-1080,ds006239,sub-1080,ses-1,task-ReadPhon,acq-D2S0201,run-1,22.223,4.799,6,perceptual,1369,1,_F3_s6.bmp,_F0_e6.bmp
ds006239_sub-1080,ds006239,sub-1080,ses-1,task-ReadPhon,acq-D2S0201,run-1,27.022,4.8,1,O+P+,1218,1,T3_fought.bmp,T1_sought.bmp
ds006239_sub-1080,ds006239,sub-1080,ses-1,task-ReadPhon,acq-D2S0201,run-1,31.822,4.799,1,O+P+,1234,1,T3_scheme.bmp,T2_theme.bmp
ds006239_sub-1080,ds006239,sub-1080,ses-1,task-ReadPhon,acq-D2S0201,run-1,36.621,4.816,5,perceptual,1091,1,_F3_f4.bmp,_F0_f4.bmp
ds006239_sub-1080,ds006239,sub-1080,ses-1,task-ReadPhon,acq-D2S0201,run-1,41.437,5.299,1,O+P+,1139,1,T3_stool.bmp,T0_fool.bmp
ds006239_sub-1080,ds006239,sub-1080,ses-1,task-ReadPhon,acq-D2S0201,run-1,46.736,5.3,1,O+P+,1304,1,T3_soak.bmp,T0_oak.bmp
ds006239_sub-1080,ds006239,sub-1080,ses-1,task-ReadPhon,acq-D2S0201,run-1,52.036,5.282,3,O+P-,1132,1,T3_threat.bmp,T1_wheat.bmp
ds006239_sub-1080,ds006239,sub-1080,ses-1,task-ReadPhon,acq-D2S0201,run-1,57.318,4.8,1,O+P+,1130,1,T3_thread.bmp,T0_spread.bmp
ds006239_sub-1080,ds006239,sub-1080,ses-1,task-ReadPhon,acq-D2S0201,run-1,62.118,5.816,2,O-P+,1146,1,T3_pile.bmp,T1_trial.bmp
ds006239_sub-1080,ds006239,sub-1080,ses-1,task-ReadPhon,acq-D2S0201,run-1,67.934,5.799,4,O-P-,1979,1,T3_swap.bmp,T2_watch.bmp
ds006239_sub-1080,ds006239,sub-1080,ses-1,task-ReadPhon,acq-D2S0201,run-1,73.733,5.799,8,control,1107,1,Gen/_Fix_Green.bmp,Gen/_Fix_Red.bmp
ds006239_sub-1080,ds006239,sub-1080,ses-1,task-ReadPhon,acq-D2S0201,run-1,79.532,5.299,4,O-P-,1260,1,T3_tough.bmp,T1_dull.bmp
ds006239_sub-1080,ds006239,sub-1080,ses-1,task-ReadPhon,acq-D2S0201,run-1,84.831,5.8,6,perceptual,1217,1,_F3_o4.bmp,_F2_b4.bmp
ds006239_sub-1080,ds006239,sub-1080,ses-1,task-ReadPhon,acq-D2S0201,run-1,90.631,5.816,1,O+P+,1017,1,T3_sweep.bmp,T0_creep.bmp
ds006239_sub-1080,ds006239,sub-1080,ses-1,task-ReadPhon,acq-D2S0201,run-1,96.447,5.816,6,perceptual,1170,1,_F3_d6.bmp,_F1_o6.bmp
ds006239_sub-1080,ds006239,sub-1080,ses-1,task-ReadPhon,acq-D2S0201,run-1,102.263,4.799,8,control,1202,1,Gen/_Fix_Green.bmp,Gen/_Fix_Red.bmp
ds006239_sub-1080,ds006239,sub-1080,ses-1,task-ReadPhon,acq-D2S0201,run-1,107.062,4.799,2,O-P+,1218,0,T3_stroke.bmp,T1_soak.bmp
ds006239_sub-1080,ds006239,sub-1080,ses-1,task-ReadPhon,acq-D2S0201,run-1,111.861,5.3,4,O-P-,1467,1,T3_trial.bmp,T0_fall.bmp
ds006239_sub-1080,ds006239,sub-1080,ses-1,task-ReadPhon,acq-D2S0201,run-1,117.161,5.799,5,perceptual,1591,1,_F3_s6.bmp,_F0_s6.bmp
ds006239_sub-1080,ds006239,sub-1080,ses-1,task-ReadPhon,acq-D2S0201,run-1,122.96,4.816,7,control,1096,1,Gen/_Fix_Green.bmp,Gen/_Fix_Green.bmp
ds006239_sub-1080,ds006239,sub-1080,ses-1,task-ReadPhon,acq-D2S0201,run-1,127.776,4.799,8,control,1112,1,Gen/_Fix_Red.bmp,Gen/_Fix_Green.bmp
ds006239_sub-1080,ds006239,sub-1080,ses-1,task-ReadPhon,acq-D2S0201,run-1,132.575,5.3,7,control,1185,1,Gen/_Fix_Red.bmp,Gen/_Fix_Red.bmp
ds006239_sub-1080,ds006239,sub-1080,ses-1,task-ReadPhon,acq-D2S0201,run-1,137.875,4.799,1,O+P+,1229,1,T3_beef.bmp,T1_reef.bmp
ds006239_sub-1080,ds006239,sub-1080,ses-1,task-ReadPhon,acq-D2S0201,run-1,142.674,5.799,3,O+P-,1102,1,T3_wart.bmp,T1_smart.bmp
ds006239_sub-1080,ds006239,sub-1080,ses-1,task-ReadPhon,acq-D2S0201,run-1,148.473,5.816,3,O+P-,1239,1,T3_dose.bmp,T0_pose.bmp
ds006239_sub-1080,ds006239,sub-1080,ses-1,task-ReadPhon,acq-D2S0201,run-1,154.289,4.8,3,O+P-,1063,1,T3_touch.bmp,T1_couch.bmp
ds006239_sub-1080,ds006239,sub-1080,ses-1,task-ReadPhon,acq-D2S0201,run-1,159.089,4.799,6,perceptual,1152,1,_F3_e6.bmp,_F0_s6.bmp
ds006239_sub-1080,ds006239,sub-1080,ses-1,task-ReadPhon,acq-D2S0201,run-1,163.888,5.799,8,control,1064,1,Gen/_Fix_Green.bmp,Gen/_Fix_Red.bmp
ds006239_sub-1080,ds006239,sub-1080,ses-1,task-ReadPhon,acq-D2S0201,run-1,169.687,5.799,7,control,1065,1,Gen/_Fix_Green.bmp,Gen/_Fix_Green.bmp
ds006239_sub-1080,ds006239,sub-1080,ses-1,task-ReadPhon,acq-D2S0201,run-1,175.486,5.3,8,control,1098,1,Gen/_Fix_Red.bmp,Gen/_Fix_Green.bmp
ds006239_sub-1080,ds006239,sub-1080,ses-1,task-ReadPhon,acq-D2S0201,run-1,180.786,4.816,7,control,1174,1,Gen/_Fix_Red.bmp,Gen/_Fix_Red.bmp
ds006239_sub-1080,ds006239,sub-1080,ses-1,task-ReadPhon,acq-D2S0201,run-1,185.602,5.282,4,O-P-,1126,1,T3_port.bmp,T1_warm.bmp
ds006239_sub-1080,ds006239,sub-1080,ses-1,task-ReadPhon,acq-D2S0201,run-1,190.884,5.8,2,O-P+,1124,1,T3_june.bmp,T2_noon.bmp
ds006239_sub-1080,ds006239,sub-1080,ses-1,task-ReadPhon,acq-D2S0201,run-1,196.684,4.799,4,O-P-,1021,1,T3_wreath.bmp,T0_leap.bmp
ds006239_sub-1080,ds006239,sub-1080,ses-1,task-ReadPhon,acq-D2S0201,run-1,201.483,4.799,5,perceptual,1108,1,_F3_b6.bmp,_F2_b6.bmp
ds006239_sub-1080,ds006239,sub-1080,ses-1,task-ReadPhon,acq-D2S0201,run-1,206.282,5.3,3,O+P-,1197,1,T3_glove.bmp,T0_stove.bmp
ds006239_sub-1080,ds006239,sub-1080,ses-1,task-ReadPhon,acq-D2S0201,run-1,211.582,5.816,1,O+P+,1217,1,T3_numb.bmp,T1_crumb.bmp
ds006239_sub-1080,ds006239,sub-1080,ses-1,task-ReadPhon,acq-D2S0201,run-1,217.398,4.799,3,O+P-,1210,1,T3_stood.bmp,T2_flood.bmp
ds006239_sub-1080,ds006239,sub-1080,ses-1,task-ReadPhon,acq-D2S0201,run-1,222.197,5.299,5,perceptual,1098,1,_F3_s4.bmp,_F1_s4.bmp
ds006239_sub-1080,ds006239,sub-1080,ses-1,task-ReadPhon,acq-D2S0201,run-1,227.496,5.816,4,O-P-,1607,1,T3_smart.bmp,T1_drought.bmp
ds006239_sub-1080,ds006239,sub-1080,ses-1,task-ReadPhon,acq-D2S0201,run-1,233.312,5.3,2,O-P+,1048,1,T3_stir.bmp,T2_blur.bmp
ds006239_sub-1080,ds006239,sub-1080,ses-1,task-ReadPhon,acq-D2S0201,run-1,238.612,5.316,8,control,900,1,Gen/_Fix_Red.bmp,Gen/_Fix_Green.bmp
ds006239_sub-1080,ds006239,sub-1080,ses-1,task-ReadPhon,acq-D2S0201,run-1,243.928,5.299,7,control,1368,1,Gen/_Fix_Red.bmp,Gen/_Fix_Red.bmp
ds006239_sub-1080,ds006239,sub-1080,ses-1,task-ReadPhon,acq-D2S0201,run-1,249.227,5.799,3,O+P-,1780,0,T3_pool.bmp,T0_wool.bmp
ds006239_sub-1080,ds006239,sub-1080,ses-1,task-ReadPhon,acq-D2S0201,run-1,255.026,5.299,3,O+P-,1229,1,T3_fought.bmp,T2_drought.bmp
ds006239_sub-1080,ds006239,sub-1080,ses-1,task-ReadPhon,acq-D2S0201,run-1,260.325,4.8,2,O-P+,1250,1,T3_flight.bmp,T1_spite.bmp
ds006239_sub-1080,ds006239,sub-1080,ses-1,task-ReadPhon,acq-D2S0201,run-1,265.125,5.299,2,O-P+,1194,1,T3_scheme.bmp,T0_cream.bmp
ds006239_sub-1080,ds006239,sub-1080,ses-1,task-ReadPhon,acq-D2S0201,run-1,270.424,5.316,6,perceptual,1391,0,_F3_b6.bmp,_F2_f6.bmp
ds006239_sub-1080,ds006239,sub-1080,ses-1,task-ReadPhon,acq-D2S0201,run-1,275.74,5.799,4,O-P-,1035,1,T3_ghost.bmp,T0_pose.bmp
