unique_id,dataset,participant_id,session,task,acquisition,run,onset,duration,trial_type,condition,response_time,accuracy,stim1,stim2
ds002236_sub-0001,ds002236,sub-01,,task-VisRhyme,,run-01,0,4.459,3,O-P+,2.762,1,RhymeSpell/mouth.bmp,RhymeSpell/youth1.bmp
ds002236_sub-0001,ds002236,sub-01,,task-VisRhyme,,run-01,4.459,4.443,2,O+P-,1.222,1,RhymeSpell/tone.bmp,RhymeSpell/known1.bmp
ds002236_sub-0001,ds002236,sub-01,,task-VisRhyme,,run-01,8.902,4.443,5,perceptual,1.163,1,Symbols/t.bmp,Symbols/g2.bmp
ds002236_sub-0001,ds002236,sub-01,,task-VisRhyme,,run-01,13.345,4.442,0,control,1.438,1,RhymeSpell/null.bmp,RhymeSpell/null.bmp
ds002236_sub-0001,ds002236,sub-01,,task-VisRhyme,,run-01,17.787,4.443,3,O-P+,2.025,1,RhymeSpell/pool.bmp,RhymeSpell/wool2.bmp
ds002236_sub-0001,ds002236,sub-01,,task-VisRhyme,,run-01,22.23,4.443,0,control,2.324,1,RhymeSpell/null.bmp,RhymeSpell/null.bmp
ds002236_sub-0001,ds002236,sub-01,,task-VisRhyme,,run-01,26.673,4.443,5,perceptual,1.681,1,Symbols/w.bmp,Symbols/w2.bmp
ds002236_sub-0001,ds002236,sub-01,,task-VisRhyme,,run-01,31.116,4.443,5,perceptual,1.223,1,Symbols/u.bmp,Symbols/u2.bmp
ds002236_sub-0001,ds002236,sub-01,,task-VisRhyme,,run-01,35.559,4.443,1,O+P+,1.574,1,RhymeSpell/meal.bmp,RhymeSpell/seal1.bmp
ds002236_sub-0001,ds002236,sub-01,,task-VisRhyme,,run-01,40.002,4.442,0,control,2.25,1,RhymeSpell/null.bmp,RhymeSpell/null.bmp
ds002236_sub-0001,ds002236,sub-01,,task-VisRhyme,,run-01,44.444,4.443,3,O-P+,1.95,1,RhymeSpell/low.bmp,RhymeSpell/vow1.bmp
ds002236_sub-0001,ds002236,sub-01,,task-VisRhyme,,run-01,48.887,4.443,6,perceptual_complex,1.124,1,Symbols/mfc.bmp,Symbols/mfc1.bmp
ds002236_sub-0001,ds002236,sub-01,,task-VisRhyme,,run-01,53.33,4.443,0,control,1.306,1,RhymeSpell/null.bmp,RhymeSpell/null.bmp
ds002236_sub-0001,ds002236,sub-01,,task-VisRhyme,,run-01,57.773,4.443,0,control,1.78,1,RhymeSpell/null.bmp,RhymeSpell/null.bmp
ds002236_sub-0001,ds002236,sub-01,,task-VisRhyme,,run-01,62.216,4.443,4,O-P-,1.17,1,RhymeSpell/wrist.bmp,RhymeSpell/friend2.bmp
ds002236_sub-0001,ds002236,sub-01,,task-VisRhyme,,run-01,66.659,4.443,4,O-P-,1.177,1,RhymeSpell/halt.bmp,RhymeSpell/stain2.bmp
ds002236_sub-0001,ds002236,sub-01,,task-VisRhyme,,run-01,71.102,4.442,0,control,1.247,1,RhymeSpell/null.bmp,RhymeSpell/null.bmp
ds002236_sub-0001,ds002236,sub-01,,task-VisRhyme,,run-01,75.544,4.443,6,perceptual_complex,0.953,1,Symbols/crs.bmp,Symbols/cre2.bmp
ds002236_sub-0001,ds002236,sub-01,,task-VisRhyme,,run-01,79.987,4.443,6,perceptual_complex,1.251,1,Symbols/pcf.bmp,Symbols/kcf2.bmp
ds002236_sub-0001,ds002236,sub-01,,task-VisRhyme,,run-01,84.43,4.443,0,control,1.456,1,RhymeSpell/null.bmp,RhymeSpell/null.bmp
ds002236_sub-0001,ds002236,sub-01,,task-VisRhyme,,run-01,88.873,4.443,1,O+P+,1.996,1,RhymeSpell/cure.bmp,RhymeSpell/sure2.bmp
ds002236_sub-0001,ds002236,sub-01,,task-VisRhyme,,run-01,93.316,4.443,2,O+P-,1.816,1,RhymeSpell/sleek.bmp,RhymeSpell/speak1.bmp
ds002236_sub-0001,ds002236,sub-01,,task-VisRhyme,,run-01,97.759,4.442,0,control,1.788,1,RhymeSpell/null.bmp,RhymeSpell/null.bmp
ds002236_sub-0001,ds002236,sub-01,,task-VisRhyme,,run-01,102.201,4.443,4,O-P-,1.149,1,RhymeSpell/trust.bmp,RhymeSpell/chalk2.bmp
ds002236_sub-0001,ds002236,sub-01,,task-VisRhyme,,run-01,106.644,4.443,2,O+P-,1.552,1,RhymeSpell/street.bmp,RhymeSpell/wheat2.bmp
ds002236_sub-0001,ds002236,sub-01,,task-VisRhyme,,run-01,111.087,4.443,0,control,1.274,1,RhymeSpell/null.bmp,RhymeSpell/null.bmp
ds002236_sub-0001,ds002236,sub-01,,task-VisRhyme,,run-01,115.53,4.443,6,perceptual_complex,0.941,1,Symbols/van.bmp,Symbols/van2.bmp
ds002236_sub-0001,ds002236,sub-01,,task-VisRhyme,,run-01,119.973,4.443,6,perceptual_complex,1.172,1,Symbols/jzd.bmp,Symbols/jbd2.bmp
ds002236_sub-0001,ds002236,sub-01,,task-VisRhyme,,run-01,124.416,4.442,0,control,1.401,1,RhymeSpell/null.bmp,RhymeSpell/null.bmp
ds002236_sub-0001,ds002236,sub-01,,task-VisRhyme,,run-01,128.858,4.443,5,perceptual,1.669,1,Symbols/s.bmp,Symbols/j2.bmp
ds002236_sub-0001,ds002236,sub-01,,task-VisRhyme,,run-01,133.301,4.443,0,control,1.848,1,RhymeSpell/null.bmp,RhymeSpell/null.bmp
ds002236_sub-0001,ds002236,sub-01,,task-VisRhyme,,run-01,137.744,4.443,2,O+P-,1.375,0,RhymeSpell/rear.bmp,RhymeSpell/mere1.bmp
ds002236_sub-0001,ds002236,sub-01,,task-VisRhyme,,run-01,142.187,4.443,1,O+P+,1.171,1,RhymeSpell/crown.bmp,RhymeSpell/town2.bmp
ds002236_sub-0001,ds002236,sub-01,,task-VisRhyme,,run-01,146.63,4.443,3,O-P+,1.355,1,RhymeSpell/sword.bmp,RhymeSpell/word2.bmp
ds002236_sub-0001,ds002236,sub-01,,task-VisRhyme,,run-01,151.073,4.443,6,perceptual_complex,1.356,1,Symbols/ksg.bmp,Symbols/ksj2.bmp
ds002236_sub-0001,ds002236,sub-01,,task-VisRhyme,,run-01,155.516,4.442,3,O-P+,2.288,1,RhymeSpell/head.bmp,RhymeSpell/bead2.bmp
ds002236_sub-0001,ds002236,sub-01,,task-VisRhyme,,run-01,159.958,4.443,0,control,1.408,1,RhymeSpell/null.bmp,RhymeSpell/null.bmp
ds002236_sub-0001,ds002236,sub-01,,task-VisRhyme,,run-01,164.401,4.443,5,perceptual,0.695,1,Symbols/l.bmp,Symbols/l2.bmp
ds002236_sub-0001,ds002236,sub-01,,task-VisRhyme,,run-01,168.844,4.443,0,control,1.161,1,RhymeSpell/null.bmp,RhymeSpell/null.bmp
ds002236_sub-0001,ds002236,sub-01,,task-VisRhyme,,run-01,173.287,4.443,6,perceptual_complex,1.372,0,Symbols/uab.bmp,Symbols/iab1.bmp
ds002236_sub-0001,ds002236,sub-01,,task-VisRhyme,,run-01,177.73,4.443,2,O+P-,1.931,1,RhymeSpell/size.bmp,RhymeSpell/wise2.bmp
ds002236_sub-0001,ds002236,sub-01,,task-VisRhyme,,run-01,182.173,4.442,4,O-P-,1.197,1,RhymeSpell/clash.bmp,RhymeSpell/worse1.bmp
ds002236_sub-0001,ds002236,sub-01,,task-VisRhyme,,run-01,186.615,4.443,5,perceptual,1.152,1,Symbols/c.bmp,Symbols/v1.bmp
ds002236_sub-0001,ds002236,sub-01,,task-VisRhyme,,run-01,191.058,4.443,0,control,1.305,1,RhymeSpell/null.bmp,RhymeSpell/null.bmp
ds002236_sub-0001,ds002236,sub-01,,task-VisRhyme,,run-01,195.501,4.443,0,control,1.218,1,RhymeSpell/null.bmp,RhymeSpell/null.bmp
ds002236_sub-0001,ds002236,sub-01,,task-VisRhyme,,run-01,199.944,4.443,4,O-P-,1.221,1,RhymeSpell/loose.bmp,RhymeSpell/drew1.bmp
ds002236_sub-0001,ds002236,sub-01,,task-VisRhyme,,run-01,204.387,4.443,0,control,1.853,1,RhymeSpell/null.bmp,RhymeSpell/null.bmp
ds002236_sub-0001,ds002236,sub-01,,task-VisRhyme,,run-01,208.83,4.443,4,O-P-,1.169,1,RhymeSpell/yeast.bmp,RhymeSpell/tooth1.bmp
ds002236_sub-0001,ds002236,sub-01,,task-VisRhyme,,run-01,213.273,4.442,0,control,1.249,1,RhymeSpell/null.bmp,RhymeSpell/null.bmp
ds002236_sub-0001,ds002236,sub-01,,task-VisRhyme,,run-01,217.715,4.443,3,O-P+,1.702,1,RhymeSpell/shove.bmp,RhymeSpell/wove1.bmp
ds002236_sub-0001,ds002236,sub-01,,task-VisRhyme,,run-01,222.158,4.443,5,perceptual,1.167,1,Symbols/n.bmp,Symbols/n1.bmp
ds002236_sub-0001,ds002236,sub-01,,task-VisRhyme,,run-01,226.601,4.443,2,O+P-,1.596,1,RhymeSpell/chair.bmp,RhymeSpell/scare1.bmp
ds002236_sub-0001,ds002236,sub-01,,task-VisRhyme,,run-01,231.044,4.443,0,control,1.595,1,RhymeSpell/null.bmp,RhymeSpell/null.bmp
ds002236_sub-0001,ds002236,sub-01,,task-VisRhyme,,run-01,235.487,4.443,1,O+P+,1.486,1,RhymeSpell/dad.bmp,RhymeSpell/sad1.bmp
ds002236_sub-0001,ds002236,sub-01,,task-VisRhyme,,run-01,239.93,4.442,0,control,1.391,1,RhymeSpell/null.bmp,RhymeSpell/null.bmp
ds002236_sub-0001,ds002236,sub-01,,task-VisRhyme,,run-01,244.372,4.443,4,O-P-,1.304,1,RhymeSpell/beef.bmp,RhymeSpell/keep2.bmp
ds002236_sub-0001,ds002236,sub-01,,task-VisRhyme,,run-01,248.815,4.443,3,O-P+,1.563,1,RhymeSpell/broad.bmp,RhymeSpell/toad1.bmp
ds002236_sub-0001,ds002236,sub-01,,task-VisRhyme,,run-01,253.258,4.443,0,control,1.37,1,RhymeSpell/null.bmp,RhymeSpell/null.bmp
ds002236_sub-0001,ds002236,sub-01,,task-VisRhyme,,run-01,257.701,4.443,0,control,1.66,1,RhymeSpell/null.bmp,RhymeSpell/null.bmp
ds002236_sub-0001,ds002236,sub-01,,task-VisRhyme,,run-01,262.144,4.443,4,O-P-,1.364,1,RhymeSpell/rail.bmp,RhymeSpell/fast1.bmp
ds002236_sub-0001,ds002236,sub-01,,task-VisRhyme,,run-01,266.587,4.442,0,control,1.696,1,RhymeSpell/null.bmp,RhymeSpell/null.bmp
ds002236_sub-0001,ds002236,sub-01,,task-VisRhyme,,run-01,271.029,4.443,1,O+P+,1.617,1,RhymeSpell/leg.bmp,RhymeSpell/peg2.bmp
ds002236_sub-0001,ds002236,sub-01,,task-VisRhyme,,run-01,275.472,4.443,1,O+P+,1.299,1,RhymeSpell/mule.bmp,RhymeSpell/rule2.bmp
ds002236_sub-0001,ds002236,sub-01,,task-VisRhyme,,run-01,279.915,4.443,6,perceptual_complex,1.301,1,Symbols/upw.bmp,Symbols/upw1.bmp
ds002236_sub-0001,ds002236,sub-01,,task-VisRhyme,,run-01,284.358,4.443,6,perceptual_complex,1.203,1,Symbols/myh.bmp,Symbols/myl1.bmp
ds002236_sub-0001,ds002236,sub-01,,task-VisRhyme,,run-01,288.801,4.443,0,control,1.41,1,RhymeSpell/null.bmp,RhymeSpell/null.bmp
ds002236_sub-0001,ds002236,sub-01,,task-VisRhyme,,run-01,293.244,4.443,4,O-P-,1.236,1,RhymeSpell/storm.bmp,RhymeSpell/chose2.bmp
ds002236_sub-0001,ds002236,sub-01,,task-VisRhyme,,run-01,297.687,4.442,0,control,1.346,1,RhymeSpell/null.bmp,RhymeSpell/null.bmp
ds002236_sub-0001,ds002236,sub-01,,task-VisRhyme,,run-01,302.129,4.443,2,O+P-,1.544,1,RhymeSpell/prize.bmp,RhymeSpell/rise1.bmp
ds002236_sub-0001,ds002236,sub-01,,task-VisRhyme,,run-01,306.572,4.443,0,control,1.257,1,RhymeSpell/null.bmp,RhymeSpell/null.bmp
ds002236_sub-0001,ds002236,sub-01,,task-VisRhyme,,run-01,311.015,4.443,1,O+P+,1.732,0,RhymeSpell/fought.bmp,RhymeSpell/sought2.bmp
ds002236_sub-0001,ds002236,sub-01,,task-VisRhyme,,run-01,315.458,4.443,4,O-P-,1.179,1,RhymeSpell/wage.bmp,RhymeSpell/spice1.bmp
ds002236_sub-0001,ds002236,sub-01,,task-VisRhyme,,run-01,319.901,4.443,1,O+P+,1.19,1,RhymeSpell/beast.bmp,RhymeSpell/least2.bmp
ds002236_sub-0001,ds002236,sub-01,,task-VisRhyme,,run-01,324.344,4.442,5,perceptual,1.224,1,Symbols/i.bmp,Symbols/i2.bmp
ds002236_sub-0001,ds002236,sub-01,,task-VisRhyme,,run-01,328.786,4.443,5,perceptual,1.066,1,Symbols/r.bmp,Symbols/z2.bmp
ds002236_sub-0001,ds002236,sub-01,,task-VisRhyme,,run-01,333.229,4.443,0,control,1.171,1,RhymeSpell/null.bmp,RhymeSpell/null.bmp
ds002236_sub-0001,ds002236,sub-01,,task-VisRhyme,,run-01,337.672,4.443,4,O-P-,1.103,1,RhymeSpell/dome.bmp,RhymeSpell/fool2.bmp
ds002236_sub-0001,ds002236,sub-01,,task-VisRhyme,,run-01,342.115,4.443,0,control,1.35,1,RhymeSpell/null.bmp,RhymeSpell/null.bmp
ds002236_sub-0001,ds002236,sub-01,,task-VisRhyme,,run-01,346.558,4.443,1,O+P+,1.318,1,RhymeSpell/grant.bmp,RhymeSpell/slant1.bmp
ds002236_sub-0001,ds002236,sub-01,,task-VisRhyme,,run-01,351.001,4.443,1,O+P+,1.128,1,RhymeSpell/numb.bmp,RhymeSpell/thumb2.bmp
ds002236_sub-0001,ds002236,sub-01,,task-VisRhyme,,run-01,355.444,4.442,1,O+P+,1.47,1,RhymeSpell/chess.bmp,RhymeSpell/press2.bmp
ds002236_sub-0001,ds002236,sub-01,,task-VisRhyme,,run-01,359.886,4.443,6,perceptual_complex,0.943,1,Symbols/hio.bmp,Symbols/hio2.bmp
ds002236_sub-0001,ds002236,sub-01,,task-VisRhyme,,run-01,364.329,4.443,3,O-P+,2.004,1,RhymeSpell/damp.bmp,RhymeSpell/swamp1.bmp
ds002236_sub-0001,ds002236,sub-01,,task-VisRhyme,,run-01,368.772,4.443,2,O+P-,1.595,1,RhymeSpell/true.bmp,RhymeSpell/grew2.bmp
ds002236_sub-0001,ds002236,sub-01,,task-VisRhyme,,run-01,373.215,4.443,0,control,1.533,1,RhymeSpell/null.bmp,RhymeSpell/null.bmp
ds002236_sub-0001,ds002236,sub-01,,task-VisRhyme,,run-01,377.658,4.443,5,perceptual,1.217,1,Symbols/p.bmp,Symbols/s1.bmp
ds002236_sub-0001,ds002236,sub-01,,task-VisRhyme,,run-01,382.101,4.442,3,O-P+,2.134,1,RhymeSpell/shown.bmp,RhymeSpell/clown2.bmp
ds002236_sub-0001,ds002236,sub-01,,task-VisRhyme,,run-01,386.543,4.443,4,O-P-,2.216,1,RhymeSpell/paint.bmp,RhymeSpell/sigh2.bmp
ds002236_sub-0001,ds002236,sub-01,,task-VisRhyme,,run-01,390.986,4.443,1,O+P+,1.212,1,RhymeSpell/stone.bmp,RhymeSpell/zone1.bmp
ds002236_sub-0001,ds002236,sub-01,,task-VisRhyme,,run-01,395.429,4.443,0,control,1.567,1,RhymeSpell/null.bmp,RhymeSpell/null.bmp
ds002236_sub-0001,ds002236,sub-01,,task-VisRhyme,,run-01,399.872,4.443,6,perceptual_complex,1.425,1,Symbols/mey.bmp,Symbols/mey2.bmp
ds002236_sub-0001,ds002236,sub-01,,task-VisRhyme,,run-01,404.315,4.443,0,control,1.679,1,RhymeSpell/null.bmp,RhymeSpell/null.bmp
ds002236_sub-0001,ds002236,sub-01,,task-VisRhyme,,run-01,408.758,4.442,0,control,1.286,1,RhymeSpell/null.bmp,RhymeSpell/null.bmp
ds002236_sub-0001,ds002236,sub-01,,task-VisRhyme,,run-01,413.2,4.443,2,O+P-,1.514,1,RhymeSpell/spear.bmp,RhymeSpell/sphere2.bmp
ds002236_sub-0001,ds002236,sub-01,,task-VisRhyme,,run-01,417.643,4.443,0,control,2.289,1,RhymeSpell/null.bmp,RhymeSpell/null.bmp
ds002236_sub-0001,ds002236,sub-01,,task-VisRhyme,,run-01,422.086,4.443,6,perceptual_complex,0.93,1,Symbols/odt.bmp,Symbols/odt2.bmp
ds002236_sub-0001,ds002236,sub-01,,task-VisRhyme,,run-01,426.529,4.443,2,O+P-,2.198,1,RhymeSpell/pro.bmp,RhymeSpell/mow2.bmp
ds002236_sub-0001,ds002236,sub-01,,task-VisRhyme,,run-01,430.972,4.443,0,control,1.594,1,RhymeSpell/null.bmp,RhymeSpell/null.bmp
ds002236_sub-0001,ds002236,sub-01,,task-VisRhyme,,run-01,435.415,4.443,4,O-P-,1.373,1,RhymeSpell/home.bmp,RhymeSpell/form2.bmp
ds002236_sub-0001,ds002236,sub-01,,task-VisRhyme,,run-01,439.858,4.442,3,O-P+,1.921,1,RhymeSpell/smooth.bmp,RhymeSpell/booth2.bmp
ds002236_sub-0001,ds002236,sub-01,,task-VisRhyme,,run-01,444.3,4.443,0,control,1.697,1,RhymeSpell/null.bmp,RhymeSpell/null.bmp
ds002236_sub-0001,ds002236,sub-01,,task-VisRhyme,,run-01,448.743,4.443,1,O+P+,1.339,1,RhymeSpell/grief.bmp,RhymeSpell/thief1.bmp
ds002236_sub-0001,ds002236,sub-01,,task-VisRhyme,,run-01,453.186,4.443,2,O+P-,1.324,0,RhymeSpell/top.bmp,RhymeSpell/swap2.bmp
ds002236_sub-0001,ds002236,sub-01,,task-VisRhyme,,run-01,457.629,4.443,5,perceptual,0.744,1,Symbols/v.bmp,Symbols/h1.bmp
ds002236_sub-0001,ds002236,sub-01,,task-VisRhyme,,run-01,462.072,4.443,0,control,1.368,1,RhymeSpell/null.bmp,RhymeSpell/null.bmp
ds002236_sub-0001,ds002236,sub-01,,task-VisRhyme,,run-01,466.515,4.442,5,perceptual,1.781,1,Symbols/h.bmp,Symbols/c2.bmp
ds002236_sub-0001,ds002236,sub-01,,task-VisRhyme,,run-01,470.957,4.443,0,control,1.678,1,RhymeSpell/null.bmp,RhymeSpell/null.bmp
ds002236_sub-0001,ds002236,sub-01,,task-VisRhyme,,run-01,475.4,4.439,4,O-P-,1.307,1,RhymeSpell/dream.bmp,RhymeSpell/blame1.bmp
ds002236_sub-0001,ds002236,sub-01,,task-VisRhyme,,run-02,0,4.443,2,O+P-,2.181,1,RhymeSpell/crawl.bmp,RhymeSpell/ball1.bmp
ds002236_sub-0001,ds002236,sub-01,,task-VisRhyme,,run-02,4.443,4.443,2,O+P-,1.191,1,RhymeSpell/moan.bmp,RhymeSpell/bone1.bmp
ds002236_sub-0001,ds002236,sub-01,,task-VisRhyme,,run-02,8.886,4.443,0,control,1.236,1,RhymeSpell/null.bmp,RhymeSpell/null.bmp
ds002236_sub-0001,ds002236,sub-01,,task-VisRhyme,,run-02,13.329,4.443,3,O-P+,1.252,1,RhymeSpell/harm.bmp,RhymeSpell/warm2.bmp
ds002236_sub-0001,ds002236,sub-01,,task-VisRhyme,,run-02,17.772,4.443,0,control,1.368,1,RhymeSpell/null.bmp,RhymeSpell/null.bmp
ds002236_sub-0001,ds002236,sub-01,,task-VisRhyme,,run-02,22.215,4.443,3,O-P+,1.255,1,RhymeSpell/dull.bmp,RhymeSpell/pull2.bmp
ds002236_sub-0001,ds002236,sub-01,,task-VisRhyme,,run-02,26.658,4.442,5,perceptual,0.934,1,Symbols/m.bmp,Symbols/m2.bmp
ds002236_sub-0001,ds002236,sub-01,,task-VisRhyme,,run-02,31.1,4.443,1,O+P+,1.41,1,RhymeSpell/dime.bmp,RhymeSpell/lime1.bmp
ds002236_sub-0001,ds002236,sub-01,,task-VisRhyme,,run-02,35.543,4.443,0,control,1.242,1,RhymeSpell/null.bmp,RhymeSpell/null.bmp
ds002236_sub-0001,ds002236,sub-01,,task-VisRhyme,,run-02,39.986,4.443,1,O+P+,2.879,1,RhymeSpell/thread.bmp,RhymeSpell/dread2.bmp
ds002236_sub-0001,ds002236,sub-01,,task-VisRhyme,,run-02,44.429,4.443,4,O-P-,1.516,1,RhymeSpell/dash.bmp,RhymeSpell/brow1.bmp
ds002236_sub-0001,ds002236,sub-01,,task-VisRhyme,,run-02,48.872,4.443,2,O+P-,1.242,0,RhymeSpell/though.bmp,RhymeSpell/blow2.bmp
ds002236_sub-0001,ds002236,sub-01,,task-VisRhyme,,run-02,53.315,4.442,2,O+P-,1.29,1,RhymeSpell/greet.bmp,RhymeSpell/neat1.bmp
ds002236_sub-0001,ds002236,sub-01,,task-VisRhyme,,run-02,57.757,4.443,0,control,1.271,1,RhymeSpell/null.bmp,RhymeSpell/null.bmp
ds002236_sub-0001,ds002236,sub-01,,task-VisRhyme,,run-02,62.2,4.443,1,O+P+,2.338,1,RhymeSpell/mad.bmp,RhymeSpell/pad2.bmp
ds002236_sub-0001,ds002236,sub-01,,task-VisRhyme,,run-02,66.643,4.443,0,control,1.182,1,RhymeSpell/null.bmp,RhymeSpell/null.bmp
ds002236_sub-0001,ds002236,sub-01,,task-VisRhyme,,run-02,71.086,4.443,5,perceptual,1.026,1,Symbols/z.bmp,Symbols/t1.bmp
ds002236_sub-0001,ds002236,sub-01,,task-VisRhyme,,run-02,75.529,4.443,0,control,1.458,1,RhymeSpell/null.bmp,RhymeSpell/null.bmp
ds002236_sub-0001,ds002236,sub-01,,task-VisRhyme,,run-02,79.972,4.443,3,O-P+,1.432,1,RhymeSpell/tough.bmp,RhymeSpell/cough2.bmp
ds002236_sub-0001,ds002236,sub-01,,task-VisRhyme,,run-02,84.415,4.442,6,perceptual_complex,1.331,1,Symbols/lfa.bmp,Symbols/lfa1.bmp
ds002236_sub-0001,ds002236,sub-01,,task-VisRhyme,,run-02,88.857,4.443,1,O+P+,1.285,1,RhymeSpell/drum.bmp,RhymeSpell/gum1.bmp
ds002236_sub-0001,ds002236,sub-01,,task-VisRhyme,,run-02,93.3,4.443,0,control,1.41,1,RhymeSpell/null.bmp,RhymeSpell/null.bmp
ds002236_sub-0001,ds002236,sub-01,,task-VisRhyme,,run-02,97.743,4.443,5,perceptual,1.37,1,Symbols/j.bmp,Symbols/o1.bmp
ds002236_sub-0001,ds002236,sub-01,,task-VisRhyme,,run-02,102.186,4.443,5,perceptual,1.208,1,Symbols/b.bmp,Symbols/b2.bmp
ds002236_sub-0001,ds002236,sub-01,,task-VisRhyme,,run-02,106.629,4.443,2,O+P-,1.908,1,RhymeSpell/comb.bmp,RhymeSpell/chrome2.bmp
ds002236_sub-0001,ds002236,sub-01,,task-VisRhyme,,run-02,111.072,4.442,0,control,1.354,1,RhymeSpell/null.bmp,RhymeSpell/null.bmp
ds002236_sub-0001,ds002236,sub-01,,task-VisRhyme,,run-02,115.514,4.443,3,O-P+,1.693,1,RhymeSpell/couch.bmp,RhymeSpell/touch1.bmp
ds002236_sub-0001,ds002236,sub-01,,task-VisRhyme,,run-02,119.957,4.443,0,control,1.607,1,RhymeSpell/null.bmp,RhymeSpell/null.bmp
ds002236_sub-0001,ds002236,sub-01,,task-VisRhyme,,run-02,124.4,4.443,6,perceptual_complex,1.427,0,Symbols/zti.bmp,Symbols/zvi1.bmp
ds002236_sub-0001,ds002236,sub-01,,task-VisRhyme,,run-02,128.843,4.443,0,control,1.518,1,RhymeSpell/null.bmp,RhymeSpell/null.bmp
ds002236_sub-0001,ds002236,sub-01,,task-VisRhyme,,run-02,133.286,4.443,3,O-P+,1.265,1,RhymeSpell/gull.bmp,RhymeSpell/bull2.bmp
ds002236_sub-0001,ds002236,sub-01,,task-VisRhyme,,run-02,137.729,4.442,4,O-P-,1.254,1,RhymeSpell/goes.bmp,RhymeSpell/lap2.bmp
ds002236_sub-0001,ds002236,sub-01,,task-VisRhyme,,run-02,142.171,4.443,5,perceptual,1.187,1,Symbols/y.bmp,Symbols/y1.bmp
ds002236_sub-0001,ds002236,sub-01,,task-VisRhyme,,run-02,146.614,4.443,1,O+P+,1.599,1,RhymeSpell/pay.bmp,RhymeSpell/play2.bmp
ds002236_sub-0001,ds002236,sub-01,,task-VisRhyme,,run-02,151.057,4.443,0,control,1.477,1,RhymeSpell/null.bmp,RhymeSpell/null.bmp
ds002236_sub-0001,ds002236,sub-01,,task-VisRhyme,,run-02,155.5,4.443,4,O-P-,1.201,1,RhymeSpell/staff.bmp,RhymeSpell/gain2.bmp
ds002236_sub-0001,ds002236,sub-01,,task-VisRhyme,,run-02,159.943,4.443,5,perceptual,0.639,1,Symbols/a.bmp,Symbols/a1.bmp
ds002236_sub-0001,ds002236,sub-01,,task-VisRhyme,,run-02,164.386,4.443,0,control,0.644,1,RhymeSpell/null.bmp,RhymeSpell/null.bmp
ds002236_sub-0001,ds002236,sub-01,,task-VisRhyme,,run-02,168.829,4.442,4,O-P-,1.469,1,RhymeSpell/scale.bmp,RhymeSpell/fly2.bmp
ds002236_sub-0001,ds002236,sub-01,,task-VisRhyme,,run-02,173.271,4.443,0,control,1.351,1,RhymeSpell/null.bmp,RhymeSpell/null.bmp
ds002236_sub-0001,ds002236,sub-01,,task-VisRhyme,,run-02,177.714,4.443,6,perceptual_complex,1.262,1,Symbols/drp.bmp,Symbols/drn1.bmp
ds002236_sub-0001,ds002236,sub-01,,task-VisRhyme,,run-02,182.157,4.443,0,control,1.505,1,RhymeSpell/null.bmp,RhymeSpell/null.bmp
ds002236_sub-0001,ds002236,sub-01,,task-VisRhyme,,run-02,186.6,4.443,1,O+P+,1.189,1,RhymeSpell/hint.bmp,RhymeSpell/print1.bmp
ds002236_sub-0001,ds002236,sub-01,,task-VisRhyme,,run-02,191.043,4.443,0,control,1.35,1,RhymeSpell/null.bmp,RhymeSpell/null.bmp
ds002236_sub-0001,ds002236,sub-01,,task-VisRhyme,,run-02,195.486,4.442,6,perceptual_complex,1.359,1,Symbols/ntv.bmp,Symbols/ntv2.bmp
ds002236_sub-0001,ds002236,sub-01,,task-VisRhyme,,run-02,199.928,4.443,0,control,3.077,1,RhymeSpell/null.bmp,RhymeSpell/null.bmp
ds002236_sub-0001,ds002236,sub-01,,task-VisRhyme,,run-02,204.371,4.443,5,perceptual,0.773,1,Symbols/e.bmp,Symbols/e1.bmp
ds002236_sub-0001,ds002236,sub-01,,task-VisRhyme,,run-02,208.814,4.443,0,control,1.419,1,RhymeSpell/null.bmp,RhymeSpell/null.bmp
ds002236_sub-0001,ds002236,sub-01,,task-VisRhyme,,run-02,213.257,4.443,3,O-P+,2.048,1,RhymeSpell/foot.bmp,RhymeSpell/hoot1.bmp
ds002236_sub-0001,ds002236,sub-01,,task-VisRhyme,,run-02,217.7,4.443,0,control,1.875,1,RhymeSpell/null.bmp,RhymeSpell/null.bmp
ds002236_sub-0001,ds002236,sub-01,,task-VisRhyme,,run-02,222.143,4.442,3,O-P+,1.578,1,RhymeSpell/glove.bmp,RhymeSpell/drove2.bmp
ds002236_sub-0001,ds002236,sub-01,,task-VisRhyme,,run-02,226.585,4.443,0,control,1.422,1,RhymeSpell/null.bmp,RhymeSpell/null.bmp
ds002236_sub-0001,ds002236,sub-01,,task-VisRhyme,,run-02,231.028,4.443,2,O+P-,1.512,1,RhymeSpell/trade.bmp,RhymeSpell/paid2.bmp
ds002236_sub-0001,ds002236,sub-01,,task-VisRhyme,,run-02,235.471,4.443,3,O-P+,1.419,1,RhymeSpell/moth.bmp,RhymeSpell/both2.bmp
ds002236_sub-0001,ds002236,sub-01,,task-VisRhyme,,run-02,239.914,4.443,4,O-P-,NA,0,RhymeSpell/start.bmp,RhymeSpell/pure2.bmp
ds002236_sub-0001,ds002236,sub-01,,task-VisRhyme,,run-02,244.357,4.443,6,perceptual_complex,1.867,1,Symbols/gbk.bmp,Symbols/rbk2.bmp
ds002236_sub-0001,ds002236,sub-01,,task-VisRhyme,,run-02,248.8,4.443,0,control,1.371,1,RhymeSpell/null.bmp,RhymeSpell/null.bmp
ds002236_sub-0001,ds002236,sub-01,,task-VisRhyme,,run-02,253.243,4.442,5,perceptual,1.303,1,Symbols/f.bmp,Symbols/f1.bmp
ds002236_sub-0001,ds002236,sub-01,,task-VisRhyme,,run-02,257.685,4.443,0,control,1.289,1,RhymeSpell/null.bmp,RhymeSpell/null.bmp
ds002236_sub-0001,ds002236,sub-01,,task-VisRhyme,,run-02,262.128,4.443,6,perceptual_complex,1.246,1,Symbols/zsj.bmp,Symbols/wsj1.bmp
ds002236_sub-0001,ds002236,sub-01,,task-VisRhyme,,run-02,266.571,4.443,0,control,1.28,1,RhymeSpell/null.bmp,RhymeSpell/null.bmp
ds002236_sub-0001,ds002236,sub-01,,task-VisRhyme,,run-02,271.014,4.443,1,O+P+,1.216,1,RhymeSpell/wall.bmp,RhymeSpell/tall1.bmp
ds002236_sub-0001,ds002236,sub-01,,task-VisRhyme,,run-02,275.457,4.443,0,control,1.519,1,RhymeSpell/null.bmp,RhymeSpell/null.bmp
ds002236_sub-0001,ds002236,sub-01,,task-VisRhyme,,run-02,279.9,4.442,2,O+P-,2.231,1,RhymeSpell/glad.bmp,RhymeSpell/plaid1.bmp
ds002236_sub-0001,ds002236,sub-01,,task-VisRhyme,,run-02,284.342,4.443,0,control,2.011,1,RhymeSpell/null.bmp,RhymeSpell/null.bmp
ds002236_sub-0001,ds002236,sub-01,,task-VisRhyme,,run-02,288.785,4.443,5,perceptual,1.439,1,Symbols/o.bmp,Symbols/d1.bmp
ds002236_sub-0001,ds002236,sub-01,,task-VisRhyme,,run-02,293.228,4.443,0,control,1.321,1,RhymeSpell/null.bmp,RhymeSpell/null.bmp
ds002236_sub-0001,ds002236,sub-01,,task-VisRhyme,,run-02,297.671,4.443,4,O-P-,1.052,1,RhymeSpell/strut.bmp,RhymeSpell/glint2.bmp
ds002236_sub-0001,ds002236,sub-01,,task-VisRhyme,,run-02,302.114,4.443,2,O+P-,1.326,1,RhymeSpell/sheet.bmp,RhymeSpell/heat1.bmp
ds002236_sub-0001,ds002236,sub-01,,task-VisRhyme,,run-02,306.557,4.443,6,perceptual_complex,1.704,1,Symbols/lwy.bmp,Symbols/lwy1.bmp
ds002236_sub-0001,ds002236,sub-01,,task-VisRhyme,,run-02,311,4.442,2,O+P-,1.477,0,RhymeSpell/whom.bmp,RhymeSpell/womb1.bmp
ds002236_sub-0001,ds002236,sub-01,,task-VisRhyme,,run-02,315.442,4.443,4,O-P-,1.154,1,RhymeSpell/spare.bmp,RhymeSpell/cow1.bmp
ds002236_sub-0001,ds002236,sub-01,,task-VisRhyme,,run-02,319.885,4.443,0,control,1.462,1,RhymeSpell/null.bmp,RhymeSpell/null.bmp
ds002236_sub-0001,ds002236,sub-01,,task-VisRhyme,,run-02,324.328,4.443,3,O-P+,3.111,0,RhymeSpell/fat.bmp,RhymeSpell/swat2.bmp
ds002236_sub-0001,ds002236,sub-01,,task-VisRhyme,,run-02,328.771,4.443,4,O-P-,1.223,1,RhymeSpell/team.bmp,RhymeSpell/brief2.bmp
ds002236_sub-0001,ds002236,sub-01,,task-VisRhyme,,run-02,333.214,4.443,0,control,1.628,1,RhymeSpell/null.bmp,RhymeSpell/null.bmp
ds002236_sub-0001,ds002236,sub-01,,task-VisRhyme,,run-02,337.657,4.442,5,perceptual,1.239,1,Symbols/k.bmp,Symbols/k1.bmp
ds002236_sub-0001,ds002236,sub-01,,task-VisRhyme,,run-02,342.099,4.443,0,control,1.467,1,RhymeSpell/null.bmp,RhymeSpell/null.bmp
ds002236_sub-0001,ds002236,sub-01,,task-VisRhyme,,run-02,346.542,4.443,3,O-P+,2.914,1,RhymeSpell/bad.bmp,RhymeSpell/wad2.bmp
ds002236_sub-0001,ds002236,sub-01,,task-VisRhyme,,run-02,350.985,4.443,1,O+P+,1.277,1,RhymeSpell/glare.bmp,RhymeSpell/share1.bmp
ds002236_sub-0001,ds002236,sub-01,,task-VisRhyme,,run-02,355.428,4.443,0,control,1.391,1,RhymeSpell/null.bmp,RhymeSpell/null.bmp
ds002236_sub-0001,ds002236,sub-01,,task-VisRhyme,,run-02,359.871,4.443,1,O+P+,2.487,1,RhymeSpell/cold.bmp,RhymeSpell/told1.bmp
ds002236_sub-0001,ds002236,sub-01,,task-VisRhyme,,run-02,364.314,4.442,6,perceptual_complex,1.418,1,Symbols/lik.bmp,Symbols/lik1.bmp
ds002236_sub-0001,ds002236,sub-01,,task-VisRhyme,,run-02,368.756,4.443,1,O+P+,1.342,1,RhymeSpell/dawn.bmp,RhymeSpell/lawn1.bmp
ds002236_sub-0001,ds002236,sub-01,,task-VisRhyme,,run-02,373.199,4.443,1,O+P+,1.426,1,RhymeSpell/broke.bmp,RhymeSpell/joke1.bmp
ds002236_sub-0001,ds002236,sub-01,,task-VisRhyme,,run-02,377.642,4.443,4,O-P-,1.198,1,RhymeSpell/craft.bmp,RhymeSpell/young1.bmp
ds002236_sub-0001,ds002236,sub-01,,task-VisRhyme,,run-02,382.085,4.443,0,control,1.351,1,RhymeSpell/null.bmp,RhymeSpell/null.bmp
ds002236_sub-0001,ds002236,sub-01,,task-VisRhyme,,run-02,386.528,4.443,3,O-P+,1.343,1,RhymeSpell/hull.bmp,RhymeSpell/full1.bmp
ds002236_sub-0001,ds002236,sub-01,,task-VisRhyme,,run-02,390.971,4.443,3,O-P+,1.306,1,RhymeSpell/freight.bmp,RhymeSpell/height2.bmp
ds002236_sub-0001,ds002236,sub-01,,task-VisRhyme,,run-02,395.414,4.442,5,perceptual,1.112,1,Symbols/g.bmp,Symbols/p2.bmp
ds002236_sub-0001,ds002236,sub-01,,task-VisRhyme,,run-02,399.856,4.443,2,O+P-,1.507,1,RhymeSpell/stool.bmp,RhymeSpell/ghoul1.bmp
ds002236_sub-0001,ds002236,sub-01,,task-VisRhyme,,run-02,404.299,4.443,2,O+P-,1.465,1,RhymeSpell/hoe.bmp,RhymeSpell/throw2.bmp
ds002236_sub-0001,ds002236,sub-01,,task-VisRhyme,,run-02,408.742,4.443,0,control,1.523,1,RhymeSpell/null.bmp,RhymeSpell/null.bmp
ds002236_sub-0001,ds002236,sub-01,,task-VisRhyme,,run-02,413.185,4.443,6,perceptual_complex,1.845,1,Symbols/one.bmp,Symbols/one2.bmp
ds002236_sub-0001,ds002236,sub-01,,task-VisRhyme,,run-02,417.628,4.443,3,O-P+,1.68,1,RhymeSpell/cost.bmp,RhymeSpell/ghost2.bmp
ds002236_sub-0001,ds002236,sub-01,,task-VisRhyme,,run-02,422.071,4.442,0,control,1.795,1,RhymeSpell/null.bmp,RhymeSpell/null.bmp
ds002236_sub-0001,ds002236,sub-01,,task-VisRhyme,,run-02,426.513,4.443,6,perceptual_complex,1.136,1,Symbols/hvj.bmp,Symbols/hvj1.bmp
ds002236_sub-0001,ds002236,sub-01,,task-VisRhyme,,run-02,430.956,4.443,2,O+P-,1.597,1,RhymeSpell/gas.bmp,RhymeSpell/pass1.bmp
ds002236_sub-0001,ds002236,sub-01,,task-VisRhyme,,run-02,435.399,4.443,3,O-P+,1.561,1,RhymeSpell/blood.bmp,RhymeSpell/wood1.bmp
ds002236_sub-0001,ds002236,sub-01,,task-VisRhyme,,run-02,439.842,4.443,0,control,1.275,1,RhymeSpell/null.bmp,RhymeSpell/null.bmp
ds002236_sub-0001,ds002236,sub-01,,task-VisRhyme,,run-02,444.285,4.443,4,O-P-,1.095,1,RhymeSpell/vend.bmp,RhymeSpell/space1.bmp
ds002236_sub-0001,ds002236,sub-01,,task-VisRhyme,,run-02,448.728,4.443,2,O+P-,1.645,1,RhymeSpell/choose.bmp,RhymeSpell/lose2.bmp
ds002236_sub-0001,ds002236,sub-01,,task-VisRhyme,,run-02,453.171,4.442,6,perceptual_complex,1.649,1,Symbols/rbe.bmp,Symbols/rte1.bmp
ds002236_sub-0001,ds002236,sub-01,,task-VisRhyme,,run-02,457.613,4.443,0,control,2.627,1,RhymeSpell/null.bmp,RhymeSpell/null.bmp
ds002236_sub-0001,ds002236,sub-01,,task-VisRhyme,,run-02,462.056,4.443,6,perceptual_complex,1.061,1,Symbols/wug.bmp,Symbols/wyg2.bmp
ds002236_sub-0001,ds002236,sub-01,,task-VisRhyme,,run-02,466.499,4.443,5,perceptual,1.543,1,Symbols/d.bmp,Symbols/r2.bmp
ds002236_sub-0001,ds002236,sub-01,,task-VisRhyme,,run-02,470.942,4.443,0,control,1.581,1,RhymeSpell/null.bmp,RhymeSpell/null.bmp
ds002236_sub-0001,ds002236,sub-01,,task-VisRhyme,,run-02,475.385,4.439,0,control,1.395,1,RhymeSpell/null.bmp,RhymeSpell/null.bmp
ds002236_sub-0002,ds002236,sub-02,,task-VisRhyme,,run-01,0,4.459,3,O-P+,1.95,1,RhymeSpell/mouth.bmp,RhymeSpell/youth1.bmp
ds002236_sub-0002,ds002236,sub-02,,task-VisRhyme,,run-01,4.459,4.443,2,O+P-,1.759,1,RhymeSpell/tone.bmp,RhymeSpell/known1.bmp
ds002236_sub-0002,ds002236,sub-02,,task-VisRhyme,,run-01,8.902,4.442,5,perceptual,1.529,1,Symbols/t.bmp,Symbols/g2.bmp
ds002236_sub-0002,ds002236,sub-02,,task-VisRhyme,,run-01,13.344,4.443,0,control,0.836,1,RhymeSpell/null.bmp,RhymeSpell/null.bmp
ds002236_sub-0002,ds002236,sub-02,,task-VisRhyme,,run-01,17.787,4.443,3,O-P+,2.235,0,RhymeSpell/pool.bmp,RhymeSpell/wool2.bmp
ds002236_sub-0002,ds002236,sub-02,,task-VisRhyme,,run-01,22.23,4.443,0,control,1.473,1,RhymeSpell/null.bmp,RhymeSpell/null.bmp
ds002236_sub-0002,ds002236,sub-02,,task-VisRhyme,,run-01,26.673,4.443,5,perceptual,1.416,1,Symbols/w.bmp,Symbols/w2.bmp
ds002236_sub-0002,ds002236,sub-02,,task-VisRhyme,,run-01,31.116,4.443,5,perceptual,1.284,1,Symbols/u.bmp,Symbols/u2.bmp
ds002236_sub-0002,ds002236,sub-02,,task-VisRhyme,,run-01,35.559,4.442,1,O+P+,1.752,1,RhymeSpell/meal.bmp,RhymeSpell/seal1.bmp
ds002236_sub-0002,ds002236,sub-02,,task-VisRhyme,,run-01,40.001,4.443,0,control,1.445,1,RhymeSpell/null.bmp,RhymeSpell/null.bmp
ds002236_sub-0002,ds002236,sub-02,,task-VisRhyme,,run-01,44.444,4.443,3,O-P+,NA,0,RhymeSpell/low.bmp,RhymeSpell/vow1.bmp
ds002236_sub-0002,ds002236,sub-02,,task-VisRhyme,,run-01,48.887,4.443,6,perceptual_complex,1.373,1,Symbols/mfc.bmp,Symbols/mfc1.bmp
ds002236_sub-0002,ds002236,sub-02,,task-VisRhyme,,run-01,53.33,4.443,0,control,1.414,1,RhymeSpell/null.bmp,RhymeSpell/null.bmp
ds002236_sub-0002,ds002236,sub-02,,task-VisRhyme,,run-01,57.773,4.443,0,control,1.225,1,RhymeSpell/null.bmp,RhymeSpell/null.bmp
ds002236_sub-0002,ds002236,sub-02,,task-VisRhyme,,run-01,62.216,4.442,4,O-P-,NA,0,RhymeSpell/wrist.bmp,RhymeSpell/friend2.bmp
ds002236_sub-0002,ds002236,sub-02,,task-VisRhyme,,run-01,66.658,4.443,4,O-P-,2.022,1,RhymeSpell/halt.bmp,RhymeSpell/stain2.bmp
ds002236_sub-0002,ds002236,sub-02,,task-VisRhyme,,run-01,71.101,4.443,0,control,1.593,1,RhymeSpell/null.bmp,RhymeSpell/null.bmp
ds002236_sub-0002,ds002236,sub-02,,task-VisRhyme,,run-01,75.544,4.443,6,perceptual_complex,1.357,1,Symbols/crs.bmp,Symbols/cre2.bmp
ds002236_sub-0002,ds002236,sub-02,,task-VisRhyme,,run-01,79.987,4.443,6,perceptual_complex,1.883,1,Symbols/pcf.bmp,Symbols/kcf2.bmp
ds002236_sub-0002,ds002236,sub-02,,task-VisRhyme,,run-01,84.43,4.443,0,control,1.32,1,RhymeSpell/null.bmp,RhymeSpell/null.bmp
ds002236_sub-0002,ds002236,sub-02,,task-VisRhyme,,run-01,88.873,4.443,1,O+P+,2.194,1,RhymeSpell/cure.bmp,RhymeSpell/sure2.bmp
ds002236_sub-0002,ds002236,sub-02,,task-VisRhyme,,run-01,93.316,4.442,2,O+P-,1.93,1,RhymeSpell/sleek.bmp,RhymeSpell/speak1.bmp
ds002236_sub-0002,ds002236,sub-02,,task-VisRhyme,,run-01,97.758,4.443,0,control,1.925,1,RhymeSpell/null.bmp,RhymeSpell/null.bmp
ds002236_sub-0002,ds002236,sub-02,,task-VisRhyme,,run-01,102.201,4.443,4,O-P-,1.985,1,RhymeSpell/trust.bmp,RhymeSpell/chalk2.bmp
ds002236_sub-0002,ds002236,sub-02,,task-VisRhyme,,run-01,106.644,4.443,2,O+P-,2.808,1,RhymeSpell/street.bmp,RhymeSpell/wheat2.bmp
ds002236_sub-0002,ds002236,sub-02,,task-VisRhyme,,run-01,111.087,4.443,0,control,1.693,1,RhymeSpell/null.bmp,RhymeSpell/null.bmp
ds002236_sub-0002,ds002236,sub-02,,task-VisRhyme,,run-01,115.53,4.443,6,perceptual_complex,1.983,1,Symbols/van.bmp,Symbols/van2.bmp
ds002236_sub-0002,ds002236,sub-02,,task-VisRhyme,,run-01,119.973,4.442,6,perceptual_complex,2.698,1,Symbols/jzd.bmp,Symbols/jbd2.bmp
ds002236_sub-0002,ds002236,sub-02,,task-VisRhyme,,run-01,124.415,4.443,0,control,2.044,1,RhymeSpell/null.bmp,RhymeSpell/null.bmp
ds002236_sub-0002,ds002236,sub-02,,task-VisRhyme,,run-01,128.858,4.443,5,perceptual,2.023,1,Symbols/s.bmp,Symbols/j2.bmp
ds002236_sub-0002,ds002236,sub-02,,task-VisRhyme,,run-01,133.301,4.443,0,control,0.956,1,RhymeSpell/null.bmp,RhymeSpell/null.bmp
ds002236_sub-0002,ds002236,sub-02,,task-VisRhyme,,run-01,137.744,4.443,2,O+P-,2.794,0,RhymeSpell/rear.bmp,RhymeSpell/mere1.bmp
ds002236_sub-0002,ds002236,sub-02,,task-VisRhyme,,run-01,142.187,4.443,1,O+P+,1.409,1,RhymeSpell/crown.bmp,RhymeSpell/town2.bmp
ds002236_sub-0002,ds002236,sub-02,,task-VisRhyme,,run-01,146.63,4.442,3,O-P+,2.091,1,RhymeSpell/sword.bmp,RhymeSpell/word2.bmp
ds002236_sub-0002,ds002236,sub-02,,task-VisRhyme,,run-01,151.072,4.443,6,perceptual_complex,1.878,1,Symbols/ksg.bmp,Symbols/ksj2.bmp
ds002236_sub-0002,ds002236,sub-02,,task-VisRhyme,,run-01,155.515,4.443,3,O-P+,NA,0,RhymeSpell/head.bmp,RhymeSpell/bead2.bmp
ds002236_sub-0002,ds002236,sub-02,,task-VisRhyme,,run-01,159.958,4.443,0,control,1.897,1,RhymeSpell/null.bmp,RhymeSpell/null.bmp
ds002236_sub-0002,ds002236,sub-02,,task-VisRhyme,,run-01,164.401,4.443,5,perceptual,2.058,0,Symbols/l.bmp,Symbols/l2.bmp
ds002236_sub-0002,ds002236,sub-02,,task-VisRhyme,,run-01,168.844,4.443,0,control,1.269,1,RhymeSpell/null.bmp,RhymeSpell/null.bmp
ds002236_sub-0002,ds002236,sub-02,,task-VisRhyme,,run-01,173.287,4.443,6,perceptual_complex,2.454,1,Symbols/uab.bmp,Symbols/iab1.bmp
ds002236_sub-0002,ds002236,sub-02,,task-VisRhyme,,run-01,177.73,4.442,2,O+P-,2.523,1,RhymeSpell/size.bmp,RhymeSpell/wise2.bmp
ds002236_sub-0002,ds002236,sub-02,,task-VisRhyme,,run-01,182.172,4.443,4,O-P-,2.264,1,RhymeSpell/clash.bmp,RhymeSpell/worse1.bmp
ds002236_sub-0002,ds002236,sub-02,,task-VisRhyme,,run-01,186.615,4.443,5,perceptual,2.341,1,Symbols/c.bmp,Symbols/v1.bmp
ds002236_sub-0002,ds002236,sub-02,,task-VisRhyme,,run-01,191.058,4.443,0,control,1.078,1,RhymeSpell/null.bmp,RhymeSpell/null.bmp
ds002236_sub-0002,ds002236,sub-02,,task-VisRhyme,,run-01,195.501,4.443,0,control,1.32,1,RhymeSpell/null.bmp,RhymeSpell/null.bmp
ds002236_sub-0002,ds002236,sub-02,,task-VisRhyme,,run-01,199.944,4.443,4,O-P-,1.36,1,RhymeSpell/loose.bmp,RhymeSpell/drew1.bmp
ds002236_sub-0002,ds002236,sub-02,,task-VisRhyme,,run-01,204.387,4.442,0,control,1.769,1,RhymeSpell/null.bmp,RhymeSpell/null.bmp
ds002236_sub-0002,ds002236,sub-02,,task-VisRhyme,,run-01,208.829,4.443,4,O-P-,1.841,1,RhymeSpell/yeast.bmp,RhymeSpell/tooth1.bmp
ds002236_sub-0002,ds002236,sub-02,,task-VisRhyme,,run-01,213.272,4.443,0,control,1.395,1,RhymeSpell/null.bmp,RhymeSpell/null.bmp
ds002236_sub-0002,ds002236,sub-02,,task-VisRhyme,,run-01,217.715,4.443,3,O-P+,2.53,0,RhymeSpell/shove.bmp,RhymeSpell/wove1.bmp
ds002236_sub-0002,ds002236,sub-02,,task-VisRhyme,,run-01,222.158,4.443,5,perceptual,2.104,1,Symbols/n.bmp,Symbols/n1.bmp
ds002236_sub-0002,ds002236,sub-02,,task-VisRhyme,,run-01,226.601,4.443,2,O+P-,2.849,1,RhymeSpell/chair.bmp,RhymeSpell/scare1.bmp
ds002236_sub-0002,ds002236,sub-02,,task-VisRhyme,,run-01,231.044,4.442,0,control,1.828,1,RhymeSpell/null.bmp,RhymeSpell/null.bmp
ds002236_sub-0002,ds002236,sub-02,,task-VisRhyme,,run-01,235.486,4.443,1,O+P+,2.463,1,RhymeSpell/dad.bmp,RhymeSpell/sad1.bmp
ds002236_sub-0002,ds002236,sub-02,,task-VisRhyme,,run-01,239.929,4.443,0,control,2.23,1,RhymeSpell/null.bmp,RhymeSpell/null.bmp
ds002236_sub-0002,ds002236,sub-02,,task-VisRhyme,,run-01,244.372,4.443,4,O-P-,1.997,1,RhymeSpell/beef.bmp,RhymeSpell/keep2.bmp
ds002236_sub-0002,ds002236,sub-02,,task-VisRhyme,,run-01,248.815,4.443,3,O-P+,2.475,1,RhymeSpell/broad.bmp,RhymeSpell/toad1.bmp
ds002236_sub-0002,ds002236,sub-02,,task-VisRhyme,,run-01,253.258,4.443,0,control,1.736,1,RhymeSpell/null.bmp,RhymeSpell/null.bmp
ds002236_sub-0002,ds002236,sub-02,,task-VisRhyme,,run-01,257.701,4.443,0,control,1.682,1,RhymeSpell/null.bmp,RhymeSpell/null.bmp
ds002236_sub-0002,ds002236,sub-02,,task-VisRhyme,,run-01,262.144,4.442,4,O-P-,2.013,1,RhymeSpell/rail.bmp,RhymeSpell/fast1.bmp
ds002236_sub-0002,ds002236,sub-02,,task-VisRhyme,,run-01,266.586,4.443,0,control,1.762,1,RhymeSpell/null.bmp,RhymeSpell/null.bmp
ds002236_sub-0002,ds002236,sub-02,,task-VisRhyme,,run-01,271.029,4.443,1,O+P+,1.731,1,RhymeSpell/leg.bmp,RhymeSpell/peg2.bmp
ds002236_sub-0002,ds002236,sub-02,,task-VisRhyme,,run-01,275.472,4.443,1,O+P+,1.875,1,RhymeSpell/mule.bmp,RhymeSpell/rule2.bmp
ds002236_sub-0002,ds002236,sub-02,,task-VisRhyme,,run-01,279.915,4.443,6,perceptual_complex,1.912,1,Symbols/upw.bmp,Symbols/upw1.bmp
ds002236_sub-0002,ds002236,sub-02,,task-VisRhyme,,run-01,284.358,4.443,6,perceptual_complex,1.232,1,Symbols/myh.bmp,Symbols/myl1.bmp
ds002236_sub-0002,ds002236,sub-02,,task-VisRhyme,,run-01,288.801,4.442,0,control,1.249,1,RhymeSpell/null.bmp,RhymeSpell/null.bmp
ds002236_sub-0002,ds002236,sub-02,,task-VisRhyme,,run-01,293.243,4.443,4,O-P-,2.357,1,RhymeSpell/storm.bmp,RhymeSpell/chose2.bmp
ds002236_sub-0002,ds002236,sub-02,,task-VisRhyme,,run-01,297.686,4.443,0,control,2.468,1,RhymeSpell/null.bmp,RhymeSpell/null.bmp
ds002236_sub-0002,ds002236,sub-02,,task-VisRhyme,,run-01,302.129,4.443,2,O+P-,2.968,1,RhymeSpell/prize.bmp,RhymeSpell/rise1.bmp
ds002236_sub-0002,ds002236,sub-02,,task-VisRhyme,,run-01,306.572,4.443,0,control,1.664,1,RhymeSpell/null.bmp,RhymeSpell/null.bmp
ds002236_sub-0002,ds002236,sub-02,,task-VisRhyme,,run-01,311.015,4.443,1,O+P+,3.016,1,RhymeSpell/fought.bmp,RhymeSpell/sought2.bmp
ds002236_sub-0002,ds002236,sub-02,,task-VisRhyme,,run-01,315.458,4.443,4,O-P-,1.604,1,RhymeSpell/wage.bmp,RhymeSpell/spice1.bmp
ds002236_sub-0002,ds002236,sub-02,,task-VisRhyme,,run-01,319.901,4.442,1,O+P+,2.074,1,RhymeSpell/beast.bmp,RhymeSpell/least2.bmp
ds002236_sub-0002,ds002236,sub-02,,task-VisRhyme,,run-01,324.343,4.443,5,perceptual,2.414,0,Symbols/i.bmp,Symbols/i2.bmp
ds002236_sub-0002,ds002236,sub-02,,task-VisRhyme,,run-01,328.786,4.443,5,perceptual,1.421,1,Symbols/r.bmp,Symbols/z2.bmp
ds002236_sub-0002,ds002236,sub-02,,task-VisRhyme,,run-01,333.229,4.443,0,control,1.268,1,RhymeSpell/null.bmp,RhymeSpell/null.bmp
ds002236_sub-0002,ds002236,sub-02,,task-VisRhyme,,run-01,337.672,4.443,4,O-P-,1.593,1,RhymeSpell/dome.bmp,RhymeSpell/fool2.bmp
ds002236_sub-0002,ds002236,sub-02,,task-VisRhyme,,run-01,342.115,4.443,0,control,1.07,1,RhymeSpell/null.bmp,RhymeSpell/null.bmp
ds002236_sub-0002,ds002236,sub-02,,task-VisRhyme,,run-01,346.558,4.442,1,O+P+,1.211,1,RhymeSpell/grant.bmp,RhymeSpell/slant1.bmp
ds002236_sub-0002,ds002236,sub-02,,task-VisRhyme,,run-01,351,4.443,1,O+P+,1.611,1,RhymeSpell/numb.bmp,RhymeSpell/thumb2.bmp
ds002236_sub-0002,ds002236,sub-02,,task-VisRhyme,,run-01,355.443,4.443,1,O+P+,1.938,1,RhymeSpell/chess.bmp,RhymeSpell/press2.bmp
ds002236_sub-0002,ds002236,sub-02,,task-VisRhyme,,run-01,359.886,4.443,6,perceptual_complex,2.063,0,Symbols/hio.bmp,Symbols/hio2.bmp
ds002236_sub-0002,ds002236,sub-02,,task-VisRhyme,,run-01,364.329,4.443,3,O-P+,2.749,1,RhymeSpell/damp.bmp,RhymeSpell/swamp1.bmp
ds002236_sub-0002,ds002236,sub-02,,task-VisRhyme,,run-01,368.772,4.443,2,O+P-,1.562,1,RhymeSpell/true.bmp,RhymeSpell/grew2.bmp
ds002236_sub-0002,ds002236,sub-02,,task-VisRhyme,,run-01,373.215,4.442,0,control,1.019,1,RhymeSpell/null.bmp,RhymeSpell/null.bmp
ds002236_sub-0002,ds002236,sub-02,,task-VisRhyme,,run-01,377.657,4.443,5,perceptual,1.491,1,Symbols/p.bmp,Symbols/s1.bmp
ds002236_sub-0002,ds002236,sub-02,,task-VisRhyme,,run-01,382.1,4.443,3,O-P+,2.298,1,RhymeSpell/shown.bmp,RhymeSpell/clown2.bmp
ds002236_sub-0002,ds002236,sub-02,,task-VisRhyme,,run-01,386.543,4.443,4,O-P-,2.174,1,RhymeSpell/paint.bmp,RhymeSpell/sigh2.bmp
ds002236_sub-0002,ds002236,sub-02,,task-VisRhyme,,run-01,390.986,4.443,1,O+P+,NA,0,RhymeSpell/stone.bmp,RhymeSpell/zone1.bmp
ds002236_sub-0002,ds002236,sub-02,,task-VisRhyme,,run-01,395.429,4.443,0,control,2.769,1,RhymeSpell/null.bmp,RhymeSpell/null.bmp
ds002236_sub-0002,ds002236,sub-02,,task-VisRhyme,,run-01,399.872,4.443,6,perceptual_complex,1.931,0,Symbols/mey.bmp,Symbols/mey2.bmp
ds002236_sub-0002,ds002236,sub-02,,task-VisRhyme,,run-01,404.315,4.442,0,control,1.811,1,RhymeSpell/null.bmp,RhymeSpell/null.bmp
ds002236_sub-0002,ds002236,sub-02,,task-VisRhyme,,run-01,408.757,4.443,0,control,1.576,1,RhymeSpell/null.bmp,RhymeSpell/null.bmp
ds002236_sub-0002,ds002236,sub-02,,task-VisRhyme,,run-01,413.2,4.443,2,O+P-,2.657,0,RhymeSpell/spear.bmp,RhymeSpell/sphere2.bmp
ds002236_sub-0002,ds002236,sub-02,,task-VisRhyme,,run-01,417.643,4.443,0,control,1.423,1,RhymeSpell/null.bmp,RhymeSpell/null.bmp
ds002236_sub-0002,ds002236,sub-02,,task-VisRhyme,,run-01,422.086,4.443,6,perceptual_complex,1.999,1,Symbols/odt.bmp,Symbols/odt2.bmp
ds002236_sub-0002,ds002236,sub-02,,task-VisRhyme,,run-01,426.529,4.443,2,O+P-,2.688,1,RhymeSpell/pro.bmp,RhymeSpell/mow2.bmp
ds002236_sub-0002,ds002236,sub-02,,task-VisRhyme,,run-01,430.972,4.442,0,control,1.641,1,RhymeSpell/null.bmp,RhymeSpell/null.bmp
ds002236_sub-0002,ds002236,sub-02,,task-VisRhyme,,run-01,435.414,4.443,4,O-P-,2.129,1,RhymeSpell/home.bmp,RhymeSpell/form2.bmp
ds002236_sub-0002,ds002236,sub-02,,task-VisRhyme,,run-01,439.857,4.443,3,O-P+,1.522,0,RhymeSpell/smooth.bmp,RhymeSpell/booth2.bmp
ds002236_sub-0002,ds002236,sub-02,,task-VisRhyme,,run-01,444.3,4.443,0,control,1.407,1,RhymeSpell/null.bmp,RhymeSpell/null.bmp
ds002236_sub-0002,ds002236,sub-02,,task-VisRhyme,,run-01,448.743,4.443,1,O+P+,1.98,1,RhymeSpell/grief.bmp,RhymeSpell/thief1.bmp
ds002236_sub-0002,ds002236,sub-02,,task-VisRhyme,,run-01,453.186,4.443,2,O+P-,2.636,1,RhymeSpell/top.bmp,RhymeSpell/swap2.bmp
ds002236_sub-0002,ds002236,sub-02,,task-VisRhyme,,run-01,457.629,4.442,5,perceptual,1.664,1,Symbols/v.bmp,Symbols/h1.bmp
ds002236_sub-0002,ds002236,sub-02,,task-VisRhyme,,run-01,462.071,4.443,0,control,1.374,1,RhymeSpell/null.bmp,RhymeSpell/null.bmp
ds002236_sub-0002,ds002236,sub-02,,task-VisRhyme,,run-01,466.514,4.443,5,perceptual,2.146,1,Symbols/h.bmp,Symbols/c2.bmp
ds002236_sub-0002,ds002236,sub-02,,task-VisRhyme,,run-01,470.957,4.443,0,control,1.163,1,RhymeSpell/null.bmp,RhymeSpell/null.bmp
ds002236_sub-0002,ds002236,sub-02,,task-VisRhyme,,run-01,475.4,4.439,4,O-P-,2.089,1,RhymeSpell/dream.bmp,RhymeSpell/blame1.bmp
ds002236_sub-0002,ds002236,sub-02,,task-VisRhyme,,run-02,0,4.443,2,O+P-,1.805,1,RhymeSpell/crawl.bmp,RhymeSpell/ball1.bmp
ds002236_sub-0002,ds002236,sub-02,,task-VisRhyme,,run-02,4.443,4.443,2,O+P-,1.707,1,RhymeSpell/moan.bmp,RhymeSpell/bone1.bmp
ds002236_sub-0002,ds002236,sub-02,,task-VisRhyme,,run-02,8.886,4.443,0,control,1.369,1,RhymeSpell/null.bmp,RhymeSpell/null.bmp
ds002236_sub-0002,ds002236,sub-02,,task-VisRhyme,,run-02,13.329,4.443,3,O-P+,1.823,1,RhymeSpell/harm.bmp,RhymeSpell/warm2.bmp
ds002236_sub-0002,ds002236,sub-02,,task-VisRhyme,,run-02,17.772,4.442,0,control,0.959,1,RhymeSpell/null.bmp,RhymeSpell/null.bmp
ds002236_sub-0002,ds002236,sub-02,,task-VisRhyme,,run-02,22.214,4.443,3,O-P+,1.495,1,RhymeSpell/dull.bmp,RhymeSpell/pull2.bmp
ds002236_sub-0002,ds002236,sub-02,,task-VisRhyme,,run-02,26.657,4.443,5,perceptual,1.746,0,Symbols/m.bmp,Symbols/m2.bmp
ds002236_sub-0002,ds002236,sub-02,,task-VisRhyme,,run-02,31.1,4.443,1,O+P+,2.216,0,RhymeSpell/dime.bmp,RhymeSpell/lime1.bmp
ds002236_sub-0002,ds002236,sub-02,,task-VisRhyme,,run-02,35.543,4.443,0,control,1.219,1,RhymeSpell/null.bmp,RhymeSpell/null.bmp
ds002236_sub-0002,ds002236,sub-02,,task-VisRhyme,,run-02,39.986,4.443,1,O+P+,1.701,1,RhymeSpell/thread.bmp,RhymeSpell/dread2.bmp
ds002236_sub-0002,ds002236,sub-02,,task-VisRhyme,,run-02,44.429,4.442,4,O-P-,1.358,1,RhymeSpell/dash.bmp,RhymeSpell/brow1.bmp
ds002236_sub-0002,ds002236,sub-02,,task-VisRhyme,,run-02,48.871,4.443,2,O+P-,1.811,1,RhymeSpell/though.bmp,RhymeSpell/blow2.bmp
ds002236_sub-0002,ds002236,sub-02,,task-VisRhyme,,run-02,53.314,4.443,2,O+P-,1.571,1,RhymeSpell/greet.bmp,RhymeSpell/neat1.bmp
ds002236_sub-0002,ds002236,sub-02,,task-VisRhyme,,run-02,57.757,4.443,0,control,1.572,1,RhymeSpell/null.bmp,RhymeSpell/null.bmp
ds002236_sub-0002,ds002236,sub-02,,task-VisRhyme,,run-02,62.2,4.443,1,O+P+,1.567,0,RhymeSpell/mad.bmp,RhymeSpell/pad2.bmp
ds002236_sub-0002,ds002236,sub-02,,task-VisRhyme,,run-02,66.643,4.443,0,control,1.713,1,RhymeSpell/null.bmp,RhymeSpell/null.bmp
ds002236_sub-0002,ds002236,sub-02,,task-VisRhyme,,run-02,71.086,4.442,5,perceptual,2.085,1,Symbols/z.bmp,Symbols/t1.bmp
ds002236_sub-0002,ds002236,sub-02,,task-VisRhyme,,run-02,75.528,4.443,0,control,1.992,1,RhymeSpell/null.bmp,RhymeSpell/null.bmp
ds002236_sub-0002,ds002236,sub-02,,task-VisRhyme,,run-02,79.971,4.443,3,O-P+,1.669,0,RhymeSpell/tough.bmp,RhymeSpell/cough2.bmp
ds002236_sub-0002,ds002236,sub-02,,task-VisRhyme,,run-02,84.414,4.443,6,perceptual_complex,1.939,1,Symbols/lfa.bmp,Symbols/lfa1.bmp
ds002236_sub-0002,ds002236,sub-02,,task-VisRhyme,,run-02,88.857,4.443,1,O+P+,2.248,1,RhymeSpell/drum.bmp,RhymeSpell/gum1.bmp
ds002236_sub-0002,ds002236,sub-02,,task-VisRhyme,,run-02,93.3,4.443,0,control,1.604,1,RhymeSpell/null.bmp,RhymeSpell/null.bmp
ds002236_sub-0002,ds002236,sub-02,,task-VisRhyme,,run-02,97.743,4.443,5,perceptual,1.536,1,Symbols/j.bmp,Symbols/o1.bmp
ds002236_sub-0002,ds002236,sub-02,,task-VisRhyme,,run-02,102.186,4.442,5,perceptual,1.856,1,Symbols/b.bmp,Symbols/b2.bmp
ds002236_sub-0002,ds002236,sub-02,,task-VisRhyme,,run-02,106.628,4.443,2,O+P-,1.827,0,RhymeSpell/comb.bmp,RhymeSpell/chrome2.bmp
ds002236_sub-0002,ds002236,sub-02,,task-VisRhyme,,run-02,111.071,4.443,0,control,1.003,1,RhymeSpell/null.bmp,RhymeSpell/null.bmp
ds002236_sub-0002,ds002236,sub-02,,task-VisRhyme,,run-02,115.514,4.443,3,O-P+,2.807,1,RhymeSpell/couch.bmp,RhymeSpell/touch1.bmp
ds002236_sub-0002,ds002236,sub-02,,task-VisRhyme,,run-02,119.957,4.443,0,control,1.15,1,RhymeSpell/null.bmp,RhymeSpell/null.bmp
ds002236_sub-0002,ds002236,sub-02,,task-VisRhyme,,run-02,124.4,4.443,6,perceptual_complex,2.499,1,Symbols/zti.bmp,Symbols/zvi1.bmp
ds002236_sub-0002,ds002236,sub-02,,task-VisRhyme,,run-02,128.843,4.442,0,control,0.689,1,RhymeSpell/null.bmp,RhymeSpell/null.bmp
ds002236_sub-0002,ds002236,sub-02,,task-VisRhyme,,run-02,133.285,4.443,3,O-P+,1.745,0,RhymeSpell/gull.bmp,RhymeSpell/bull2.bmp
ds002236_sub-0002,ds002236,sub-02,,task-VisRhyme,,run-02,137.728,4.443,4,O-P-,2.048,1,RhymeSpell/goes.bmp,RhymeSpell/lap2.bmp
ds002236_sub-0002,ds002236,sub-02,,task-VisRhyme,,run-02,142.171,4.443,5,perceptual,1.952,0,Symbols/y.bmp,Symbols/y1.bmp
ds002236_sub-0002,ds002236,sub-02,,task-VisRhyme,,run-02,146.614,4.443,1,O+P+,2.805,0,RhymeSpell/pay.bmp,RhymeSpell/play2.bmp
ds002236_sub-0002,ds002236,sub-02,,task-VisRhyme,,run-02,151.057,4.443,0,control,NA,0,RhymeSpell/null.bmp,RhymeSpell/null.bmp
ds002236_sub-0002,ds002236,sub-02,,task-VisRhyme,,run-02,155.5,4.443,4,O-P-,1.947,1,RhymeSpell/staff.bmp,RhymeSpell/gain2.bmp
ds002236_sub-0002,ds002236,sub-02,,task-VisRhyme,,run-02,159.943,4.442,5,perceptual,1.261,1,Symbols/a.bmp,Symbols/a1.bmp
ds002236_sub-0002,ds002236,sub-02,,task-VisRhyme,,run-02,164.385,4.443,0,control,1.117,1,RhymeSpell/null.bmp,RhymeSpell/null.bmp
ds002236_sub-0002,ds002236,sub-02,,task-VisRhyme,,run-02,168.828,4.443,4,O-P-,1.111,1,RhymeSpell/scale.bmp,RhymeSpell/fly2.bmp
ds002236_sub-0002,ds002236,sub-02,,task-VisRhyme,,run-02,173.271,4.443,0,control,1.136,1,RhymeSpell/null.bmp,RhymeSpell/null.bmp
ds002236_sub-0002,ds002236,sub-02,,task-VisRhyme,,run-02,177.714,4.443,6,perceptual_complex,1.281,1,Symbols/drp.bmp,Symbols/drn1.bmp
ds002236_sub-0002,ds002236,sub-02,,task-VisRhyme,,run-02,182.157,4.443,0,control,1.471,1,RhymeSpell/null.bmp,RhymeSpell/null.bmp
ds002236_sub-0002,ds002236,sub-02,,task-VisRhyme,,run-02,186.6,4.442,1,O+P+,2.483,1,RhymeSpell/hint.bmp,RhymeSpell/print1.bmp
ds002236_sub-0002,ds002236,sub-02,,task-VisRhyme,,run-02,191.042,4.443,0,control,3.164,0,RhymeSpell/null.bmp,RhymeSpell/null.bmp
ds002236_sub-0002,ds002236,sub-02,,task-VisRhyme,,run-02,195.485,4.443,6,perceptual_complex,1.693,1,Symbols/ntv.bmp,Symbols/ntv2.bmp
ds002236_sub-0002,ds002236,sub-02,,task-VisRhyme,,run-02,199.928,4.443,0,control,1.725,1,RhymeSpell/null.bmp,RhymeSpell/null.bmp
ds002236_sub-0002,ds002236,sub-02,,task-VisRhyme,,run-02,204.371,4.443,5,perceptual,NA,0,Symbols/e.bmp,Symbols/e1.bmp
ds002236_sub-0002,ds002236,sub-02,,task-VisRhyme,,run-02,208.814,4.443,0,control,2.293,1,RhymeSpell/null.bmp,RhymeSpell/null.bmp
ds002236_sub-0002,ds002236,sub-02,,task-VisRhyme,,run-02,213.257,4.442,3,O-P+,2.51,0,RhymeSpell/foot.bmp,RhymeSpell/hoot1.bmp
ds002236_sub-0002,ds002236,sub-02,,task-VisRhyme,,run-02,217.699,4.443,0,control,2.798,1,RhymeSpell/null.bmp,RhymeSpell/null.bmp
ds002236_sub-0002,ds002236,sub-02,,task-VisRhyme,,run-02,222.142,4.443,3,O-P+,1.881,1,RhymeSpell/glove.bmp,RhymeSpell/drove2.bmp
ds002236_sub-0002,ds002236,sub-02,,task-VisRhyme,,run-02,226.585,4.443,0,control,1.374,1,RhymeSpell/null.bmp,RhymeSpell/null.bmp
ds002236_sub-0002,ds002236,sub-02,,task-VisRhyme,,run-02,231.028,4.443,2,O+P-,2.139,1,RhymeSpell/trade.bmp,RhymeSpell/paid2.bmp
ds002236_sub-0002,ds002236,sub-02,,task-VisRhyme,,run-02,235.471,4.443,3,O-P+,1.569,1,RhymeSpell/moth.bmp,RhymeSpell/both2.bmp
ds002236_sub-0002,ds002236,sub-02,,task-VisRhyme,,run-02,239.914,4.443,4,O-P-,1.678,1,RhymeSpell/start.bmp,RhymeSpell/pure2.bmp
ds002236_sub-0002,ds002236,sub-02,,task-VisRhyme,,run-02,244.357,4.442,6,perceptual_complex,1.054,1,Symbols/gbk.bmp,Symbols/rbk2.bmp
ds002236_sub-0002,ds002236,sub-02,,task-VisRhyme,,run-02,248.799,4.443,0,control,0.778,1,RhymeSpell/null.bmp,RhymeSpell/null.bmp
ds002236_sub-0002,ds002236,sub-02,,task-VisRhyme,,run-02,253.242,4.443,5,perceptual,1.615,1,Symbols/f.bmp,Symbols/f1.bmp
ds002236_sub-0002,ds002236,sub-02,,task-VisRhyme,,run-02,257.685,4.443,0,control,2.748,1,RhymeSpell/null.bmp,RhymeSpell/null.bmp
ds002236_sub-0002,ds002236,sub-02,,task-VisRhyme,,run-02,262.128,4.443,6,perceptual_complex,1.656,1,Symbols/zsj.bmp,Symbols/wsj1.bmp
ds002236_sub-0002,ds002236,sub-02,,task-VisRhyme,,run-02,266.571,4.443,0,control,1.489,1,RhymeSpell/null.bmp,RhymeSpell/null.bmp
ds002236_sub-0002,ds002236,sub-02,,task-VisRhyme,,run-02,271.014,4.442,1,O+P+,1.942,0,RhymeSpell/wall.bmp,RhymeSpell/tall1.bmp
ds002236_sub-0002,ds002236,sub-02,,task-VisRhyme,,run-02,275.456,4.443,0,control,1.72,1,RhymeSpell/null.bmp,RhymeSpell/null.bmp
ds002236_sub-0002,ds002236,sub-02,,task-VisRhyme,,run-02,279.899,4.443,2,O+P-,NA,0,RhymeSpell/glad.bmp,RhymeSpell/plaid1.bmp
ds002236_sub-0002,ds002236,sub-02,,task-VisRhyme,,run-02,284.342,4.443,0,control,1.785,1,RhymeSpell/null.bmp,RhymeSpell/null.bmp
ds002236_sub-0002,ds002236,sub-02,,task-VisRhyme,,run-02,288.785,4.443,5,perceptual,1.482,1,Symbols/o.bmp,Symbols/d1.bmp
ds002236_sub-0002,ds002236,sub-02,,task-VisRhyme,,run-02,293.228,4.443,0,control,1.498,1,RhymeSpell/null.bmp,RhymeSpell/null.bmp
ds002236_sub-0002,ds002236,sub-02,,task-VisRhyme,,run-02,297.671,4.442,4,O-P-,1.717,1,RhymeSpell/strut.bmp,RhymeSpell/glint2.bmp
ds002236_sub-0002,ds002236,sub-02,,task-VisRhyme,,run-02,302.113,4.443,2,O+P-,2.549,0,RhymeSpell/sheet.bmp,RhymeSpell/heat1.bmp
ds002236_sub-0002,ds002236,sub-02,,task-VisRhyme,,run-02,306.556,4.443,6,perceptual_complex,2.427,1,Symbols/lwy.bmp,Symbols/lwy1.bmp
ds002236_sub-0002,ds002236,sub-02,,task-VisRhyme,,run-02,310.999,4.443,2,O+P-,2.33,1,RhymeSpell/whom.bmp,RhymeSpell/womb1.bmp
ds002236_sub-0002,ds002236,sub-02,,task-VisRhyme,,run-02,315.442,4.443,4,O-P-,2.259,1,RhymeSpell/spare.bmp,RhymeSpell/cow1.bmp
ds002236_sub-0002,ds002236,sub-02,,task-VisRhyme,,run-02,319.885,4.443,0,control,1.427,1,RhymeSpell/null.bmp,RhymeSpell/null.bmp
ds002236_sub-0002,ds002236,sub-02,,task-VisRhyme,,run-02,324.328,4.443,3,O-P+,1.701,1,RhymeSpell/fat.bmp,RhymeSpell/swat2.bmp
ds002236_sub-0002,ds002236,sub-02,,task-VisRhyme,,run-02,328.771,4.442,4,O-P-,2.298,1,RhymeSpell/team.bmp,RhymeSpell/brief2.bmp
ds002236_sub-0002,ds002236,sub-02,,task-VisRhyme,,run-02,333.213,4.443,0,control,1.871,1,RhymeSpell/null.bmp,RhymeSpell/null.bmp
ds002236_sub-0002,ds002236,sub-02,,task-VisRhyme,,run-02,337.656,4.443,5,perceptual,1.41,1,Symbols/k.bmp,Symbols/k1.bmp
ds002236_sub-0002,ds002236,sub-02,,task-VisRhyme,,run-02,342.099,4.443,0,control,1.904,1,RhymeSpell/null.bmp,RhymeSpell/null.bmp
ds002236_sub-0002,ds002236,sub-02,,task-VisRhyme,,run-02,346.542,4.443,3,O-P+,1.911,1,RhymeSpell/bad.bmp,RhymeSpell/wad2.bmp
ds002236_sub-0002,ds002236,sub-02,,task-VisRhyme,,run-02,350.985,4.443,1,O+P+,2.333,1,RhymeSpell/glare.bmp,RhymeSpell/share1.bmp
ds002236_sub-0002,ds002236,sub-02,,task-VisRhyme,,run-02,355.428,4.442,0,control,2.211,0,RhymeSpell/null.bmp,RhymeSpell/null.bmp
ds002236_sub-0002,ds002236,sub-02,,task-VisRhyme,,run-02,359.87,4.443,1,O+P+,2.531,1,RhymeSpell/cold.bmp,RhymeSpell/told1.bmp
ds002236_sub-0002,ds002236,sub-02,,task-VisRhyme,,run-02,364.313,4.443,6,perceptual_complex,2.001,1,Symbols/lik.bmp,Symbols/lik1.bmp
ds002236_sub-0002,ds002236,sub-02,,task-VisRhyme,,run-02,368.756,4.443,1,O+P+,2.043,1,RhymeSpell/dawn.bmp,RhymeSpell/lawn1.bmp
ds002236_sub-0002,ds002236,sub-02,,task-VisRhyme,,run-02,373.199,4.443,1,O+P+,2.055,1,RhymeSpell/broke.bmp,RhymeSpell/joke1.bmp
ds002236_sub-0002,ds002236,sub-02,,task-VisRhyme,,run-02,377.642,4.443,4,O-P-,2.889,1,RhymeSpell/craft.bmp,RhymeSpell/young1.bmp
ds002236_sub-0002,ds002236,sub-02,,task-VisRhyme,,run-02,382.085,4.442,0,control,0.903,1,RhymeSpell/null.bmp,RhymeSpell/null.bmp
ds002236_sub-0002,ds002236,sub-02,,task-VisRhyme,,run-02,386.527,4.443,3,O-P+,2.757,1,RhymeSpell/hull.bmp,RhymeSpell/full1.bmp
ds002236_sub-0002,ds002236,sub-02,,task-VisRhyme,,run-02,390.97,4.443,3,O-P+,1.893,0,RhymeSpell/freight.bmp,RhymeSpell/height2.bmp
ds002236_sub-0002,ds002236,sub-02,,task-VisRhyme,,run-02,395.413,4.443,5,perceptual,1.275,1,Symbols/g.bmp,Symbols/p2.bmp
ds002236_sub-0002,ds002236,sub-02,,task-VisRhyme,,run-02,399.856,4.443,2,O+P-,2.349,1,RhymeSpell/stool.bmp,RhymeSpell/ghoul1.bmp
ds002236_sub-0002,ds002236,sub-02,,task-VisRhyme,,run-02,404.299,4.443,2,O+P-,2.013,1,RhymeSpell/hoe.bmp,RhymeSpell/throw2.bmp
ds002236_sub-0002,ds002236,sub-02,,task-VisRhyme,,run-02,408.742,4.443,0,control,1.541,1,RhymeSpell/null.bmp,RhymeSpell/null.bmp
ds002236_sub-0002,ds002236,sub-02,,task-VisRhyme,,run-02,413.185,4.442,6,perceptual_complex,1.654,0,Symbols/one.bmp,Symbols/one2.bmp
ds002236_sub-0002,ds002236,sub-02,,task-VisRhyme,,run-02,417.627,4.443,3,O-P+,0.978,0,RhymeSpell/cost.bmp,RhymeSpell/ghost2.bmp
ds002236_sub-0002,ds002236,sub-02,,task-VisRhyme,,run-02,422.07,4.443,0,control,1.345,1,RhymeSpell/null.bmp,RhymeSpell/null.bmp
ds002236_sub-0002,ds002236,sub-02,,task-VisRhyme,,run-02,426.513,4.443,6,perceptual_complex,1.198,1,Symbols/hvj.bmp,Symbols/hvj1.bmp
ds002236_sub-0002,ds002236,sub-02,,task-VisRhyme,,run-02,430.956,4.443,2,O+P-,1.489,1,RhymeSpell/gas.bmp,RhymeSpell/pass1.bmp
ds002236_sub-0002,ds002236,sub-02,,task-VisRhyme,,run-02,435.399,4.443,3,O-P+,2.439,1,RhymeSpell/blood.bmp,RhymeSpell/wood1.bmp
ds002236_sub-0002,ds002236,sub-02,,task-VisRhyme,,run-02,439.842,4.442,0,control,1.691,1,RhymeSpell/null.bmp,RhymeSpell/null.bmp
ds002236_sub-0002,ds002236,sub-02,,task-VisRhyme,,run-02,444.284,4.443,4,O-P-,1.786,1,RhymeSpell/vend.bmp,RhymeSpell/space1.bmp
ds002236_sub-0002,ds002236,sub-02,,task-VisRhyme,,run-02,448.727,4.443,2,O+P-,1.61,1,RhymeSpell/choose.bmp,RhymeSpell/lose2.bmp
ds002236_sub-0002,ds002236,sub-02,,task-VisRhyme,,run-02,453.17,4.443,6,perceptual_complex,1.589,1,Symbols/rbe.bmp,Symbols/rte1.bmp
ds002236_sub-0002,ds002236,sub-02,,task-VisRhyme,,run-02,457.613,4.443,0,control,1.092,1,RhymeSpell/null.bmp,RhymeSpell/null.bmp
ds002236_sub-0002,ds002236,sub-02,,task-VisRhyme,,run-02,462.056,4.443,6,perceptual_complex,1.297,1,Symbols/wug.bmp,Symbols/wyg2.bmp
ds002236_sub-0002,ds002236,sub-02,,task-VisRhyme,,run-02,466.499,4.443,5,perceptual,1.237,1,Symbols/d.bmp,Symbols/r2.bmp
ds002236_sub-0002,ds002236,sub-02,,task-VisRhyme,,run-02,470.942,4.442,0,control,2.831,1,RhymeSpell/null.bmp,RhymeSpell/null.bmp
ds002236_sub-0002,ds002236,sub-02,,task-VisRhyme,,run-02,475.384,4.439,0,control,1.277,1,RhymeSpell/null.bmp,RhymeSpell/null.bmp
ds002236_sub-0003,ds002236,sub-03,,task-VisRhyme,,run-01,0,4.46,3,O-P+,1.512,1,RhymeSpell/mouth.bmp,RhymeSpell/youth1.bmp
ds002236_sub-0003,ds002236,sub-03,,task-VisRhyme,,run-01,4.46,4.442,2,O+P-,1.179,1,RhymeSpell/tone.bmp,RhymeSpell/known1.bmp
ds002236_sub-0003,ds002236,sub-03,,task-VisRhyme,,run-01,8.902,4.443,5,perceptual,1.103,1,Symbols/t.bmp,Symbols/g2.bmp
ds002236_sub-0003,ds002236,sub-03,,task-VisRhyme,,run-01,13.345,4.443,0,control,1.191,1,RhymeSpell/null.bmp,RhymeSpell/null.bmp
ds002236_sub-0003,ds002236,sub-03,,task-VisRhyme,,run-01,17.788,4.443,3,O-P+,1.207,1,RhymeSpell/pool.bmp,RhymeSpell/wool2.bmp
ds002236_sub-0003,ds002236,sub-03,,task-VisRhyme,,run-01,22.231,4.443,0,control,1.166,1,RhymeSpell/null.bmp,RhymeSpell/null.bmp
ds002236_sub-0003,ds002236,sub-03,,task-VisRhyme,,run-01,26.674,4.443,5,perceptual,1.195,1,Symbols/w.bmp,Symbols/w2.bmp
ds002236_sub-0003,ds002236,sub-03,,task-VisRhyme,,run-01,31.117,4.442,5,perceptual,1.17,1,Symbols/u.bmp,Symbols/u2.bmp
ds002236_sub-0003,ds002236,sub-03,,task-VisRhyme,,run-01,35.559,4.443,1,O+P+,1.418,1,RhymeSpell/meal.bmp,RhymeSpell/seal1.bmp
ds002236_sub-0003,ds002236,sub-03,,task-VisRhyme,,run-01,40.002,4.443,0,control,1.205,1,RhymeSpell/null.bmp,RhymeSpell/null.bmp
ds002236_sub-0003,ds002236,sub-03,,task-VisRhyme,,run-01,44.445,4.443,3,O-P+,1.602,1,RhymeSpell/low.bmp,RhymeSpell/vow1.bmp
ds002236_sub-0003,ds002236,sub-03,,task-VisRhyme,,run-01,48.888,4.443,6,perceptual_complex,1.118,1,Symbols/mfc.bmp,Symbols/mfc1.bmp
ds002236_sub-0003,ds002236,sub-03,,task-VisRhyme,,run-01,53.331,4.443,0,control,1.291,1,RhymeSpell/null.bmp,RhymeSpell/null.bmp
ds002236_sub-0003,ds002236,sub-03,,task-VisRhyme,,run-01,57.774,4.443,0,control,1.782,1,RhymeSpell/null.bmp,RhymeSpell/null.bmp
ds002236_sub-0003,ds002236,sub-03,,task-VisRhyme,,run-01,62.217,4.442,4,O-P-,1.186,1,RhymeSpell/wrist.bmp,RhymeSpell/friend2.bmp
ds002236_sub-0003,ds002236,sub-03,,task-VisRhyme,,run-01,66.659,4.443,4,O-P-,1.218,1,RhymeSpell/halt.bmp,RhymeSpell/stain2.bmp
ds002236_sub-0003,ds002236,sub-03,,task-VisRhyme,,run-01,71.102,4.443,0,control,1.513,1,RhymeSpell/null.bmp,RhymeSpell/null.bmp
ds002236_sub-0003,ds002236,sub-03,,task-VisRhyme,,run-01,75.545,4.443,6,perceptual_complex,1.467,1,Symbols/crs.bmp,Symbols/cre2.bmp
ds002236_sub-0003,ds002236,sub-03,,task-VisRhyme,,run-01,79.988,4.443,6,perceptual_complex,1.342,1,Symbols/pcf.bmp,Symbols/kcf2.bmp
ds002236_sub-0003,ds002236,sub-03,,task-VisRhyme,,run-01,84.431,4.443,0,control,1.796,1,RhymeSpell/null.bmp,RhymeSpell/null.bmp
ds002236_sub-0003,ds002236,sub-03,,task-VisRhyme,,run-01,88.874,4.442,1,O+P+,1.414,1,RhymeSpell/cure.bmp,RhymeSpell/sure2.bmp
ds002236_sub-0003,ds002236,sub-03,,task-VisRhyme,,run-01,93.316,4.443,2,O+P-,1.179,1,RhymeSpell/sleek.bmp,RhymeSpell/speak1.bmp
ds002236_sub-0003,ds002236,sub-03,,task-VisRhyme,,run-01,97.759,4.443,0,control,1.66,1,RhymeSpell/null.bmp,RhymeSpell/null.bmp
ds002236_sub-0003,ds002236,sub-03,,task-VisRhyme,,run-01,102.202,4.443,4,O-P-,1.398,1,RhymeSpell/trust.bmp,RhymeSpell/chalk2.bmp
ds002236_sub-0003,ds002236,sub-03,,task-VisRhyme,,run-01,106.645,4.443,2,O+P-,1.444,1,RhymeSpell/street.bmp,RhymeSpell/wheat2.bmp
ds002236_sub-0003,ds002236,sub-03,,task-VisRhyme,,run-01,111.088,4.443,0,control,1.74,1,RhymeSpell/null.bmp,RhymeSpell/null.bmp
ds002236_sub-0003,ds002236,sub-03,,task-VisRhyme,,run-01,115.531,4.442,6,perceptual_complex,2.946,1,Symbols/van.bmp,Symbols/van2.bmp
ds002236_sub-0003,ds002236,sub-03,,task-VisRhyme,,run-01,119.973,4.443,6,perceptual_complex,1.518,1,Symbols/jzd.bmp,Symbols/jbd2.bmp
ds002236_sub-0003,ds002236,sub-03,,task-VisRhyme,,run-01,124.416,4.443,0,control,1.293,1,RhymeSpell/null.bmp,RhymeSpell/null.bmp
ds002236_sub-0003,ds002236,sub-03,,task-VisRhyme,,run-01,128.859,4.443,5,perceptual,1.176,1,Symbols/s.bmp,Symbols/j2.bmp
ds002236_sub-0003,ds002236,sub-03,,task-VisRhyme,,run-01,133.302,4.443,0,control,1.2,1,RhymeSpell/null.bmp,RhymeSpell/null.bmp
ds002236_sub-0003,ds002236,sub-03,,task-VisRhyme,,run-01,137.745,4.443,2,O+P-,1.503,0,RhymeSpell/rear.bmp,RhymeSpell/mere1.bmp
ds002236_sub-0003,ds002236,sub-03,,task-VisRhyme,,run-01,142.188,4.443,1,O+P+,1.338,1,RhymeSpell/crown.bmp,RhymeSpell/town2.bmp
ds002236_sub-0003,ds002236,sub-03,,task-VisRhyme,,run-01,146.631,4.442,3,O-P+,1.387,1,RhymeSpell/sword.bmp,RhymeSpell/word2.bmp
ds002236_sub-0003,ds002236,sub-03,,task-VisRhyme,,run-01,151.073,4.443,6,perceptual_complex,1.353,1,Symbols/ksg.bmp,Symbols/ksj2.bmp
ds002236_sub-0003,ds002236,sub-03,,task-VisRhyme,,run-01,155.516,4.443,3,O-P+,2.111,1,RhymeSpell/head.bmp,RhymeSpell/bead2.bmp
ds002236_sub-0003,ds002236,sub-03,,task-VisRhyme,,run-01,159.959,4.443,0,control,1.185,1,RhymeSpell/null.bmp,RhymeSpell/null.bmp
ds002236_sub-0003,ds002236,sub-03,,task-VisRhyme,,run-01,164.402,4.443,5,perceptual,1.199,1,Symbols/l.bmp,Symbols/l2.bmp
ds002236_sub-0003,ds002236,sub-03,,task-VisRhyme,,run-01,168.845,4.443,0,control,1.585,1,RhymeSpell/null.bmp,RhymeSpell/null.bmp
ds002236_sub-0003,ds002236,sub-03,,task-VisRhyme,,run-01,173.288,4.442,6,perceptual_complex,1.415,1,Symbols/uab.bmp,Symbols/iab1.bmp
ds002236_sub-0003,ds002236,sub-03,,task-VisRhyme,,run-01,177.73,4.443,2,O+P-,1.002,1,RhymeSpell/size.bmp,RhymeSpell/wise2.bmp
ds002236_sub-0003,ds002236,sub-03,,task-VisRhyme,,run-01,182.173,4.443,4,O-P-,1.228,1,RhymeSpell/clash.bmp,RhymeSpell/worse1.bmp
ds002236_sub-0003,ds002236,sub-03,,task-VisRhyme,,run-01,186.616,4.443,5,perceptual,1.192,1,Symbols/c.bmp,Symbols/v1.bmp
ds002236_sub-0003,ds002236,sub-03,,task-VisRhyme,,run-01,191.059,4.443,0,control,1.15,1,RhymeSpell/null.bmp,RhymeSpell/null.bmp
ds002236_sub-0003,ds002236,sub-03,,task-VisRhyme,,run-01,195.502,4.443,0,control,1.328,1,RhymeSpell/null.bmp,RhymeSpell/null.bmp
ds002236_sub-0003,ds002236,sub-03,,task-VisRhyme,,run-01,199.945,4.442,4,O-P-,1.227,1,RhymeSpell/loose.bmp,RhymeSpell/drew1.bmp
ds002236_sub-0003,ds002236,sub-03,,task-VisRhyme,,run-01,204.387,4.443,0,control,1.674,1,RhymeSpell/null.bmp,RhymeSpell/null.bmp
ds002236_sub-0003,ds002236,sub-03,,task-VisRhyme,,run-01,208.83,4.443,4,O-P-,1.186,1,RhymeSpell/yeast.bmp,RhymeSpell/tooth1.bmp
ds002236_sub-0003,ds002236,sub-03,,task-VisRhyme,,run-01,213.273,4.443,0,control,1.141,1,RhymeSpell/null.bmp,RhymeSpell/null.bmp
ds002236_sub-0003,ds002236,sub-03,,task-VisRhyme,,run-01,217.716,4.443,3,O-P+,1.326,1,RhymeSpell/shove.bmp,RhymeSpell/wove1.bmp
ds002236_sub-0003,ds002236,sub-03,,task-VisRhyme,,run-01,222.159,4.443,5,perceptual,1.179,1,Symbols/n.bmp,Symbols/n1.bmp
ds002236_sub-0003,ds002236,sub-03,,task-VisRhyme,,run-01,226.602,4.443,2,O+P-,1.823,0,RhymeSpell/chair.bmp,RhymeSpell/scare1.bmp
ds002236_sub-0003,ds002236,sub-03,,task-VisRhyme,,run-01,231.045,4.442,0,control,1.41,1,RhymeSpell/null.bmp,RhymeSpell/null.bmp
ds002236_sub-0003,ds002236,sub-03,,task-VisRhyme,,run-01,235.487,4.443,1,O+P+,1.607,1,RhymeSpell/dad.bmp,RhymeSpell/sad1.bmp
ds002236_sub-0003,ds002236,sub-03,,task-VisRhyme,,run-01,239.93,4.443,0,control,1.562,1,RhymeSpell/null.bmp,RhymeSpell/null.bmp
ds002236_sub-0003,ds002236,sub-03,,task-VisRhyme,,run-01,244.373,4.443,4,O-P-,1.461,1,RhymeSpell/beef.bmp,RhymeSpell/keep2.bmp
ds002236_sub-0003,ds002236,sub-03,,task-VisRhyme,,run-01,248.816,4.443,3,O-P+,1.63,1,RhymeSpell/broad.bmp,RhymeSpell/toad1.bmp
ds002236_sub-0003,ds002236,sub-03,,task-VisRhyme,,run-01,253.259,4.443,0,control,1.509,1,RhymeSpell/null.bmp,RhymeSpell/null.bmp
ds002236_sub-0003,ds002236,sub-03,,task-VisRhyme,,run-01,257.702,4.442,0,control,1.237,1,RhymeSpell/null.bmp,RhymeSpell/null.bmp
ds002236_sub-0003,ds002236,sub-03,,task-VisRhyme,,run-01,262.144,4.443,4,O-P-,1.246,1,RhymeSpell/rail.bmp,RhymeSpell/fast1.bmp
ds002236_sub-0003,ds002236,sub-03,,task-VisRhyme,,run-01,266.587,4.443,0,control,1.275,1,RhymeSpell/null.bmp,RhymeSpell/null.bmp
ds002236_sub-0003,ds002236,sub-03,,task-VisRhyme,,run-01,271.03,4.443,1,O+P+,1.194,1,RhymeSpell/leg.bmp,RhymeSpell/peg2.bmp
ds002236_sub-0003,ds002236,sub-03,,task-VisRhyme,,run-01,275.473,4.443,1,O+P+,1.319,1,RhymeSpell/mule.bmp,RhymeSpell/rule2.bmp
ds002236_sub-0003,ds002236,sub-03,,task-VisRhyme,,run-01,279.916,4.443,6,perceptual_complex,1.361,1,Symbols/upw.bmp,Symbols/upw1.bmp
ds002236_sub-0003,ds002236,sub-03,,task-VisRhyme,,run-01,284.359,4.442,6,perceptual_complex,1.286,1,Symbols/myh.bmp,Symbols/myl1.bmp
ds002236_sub-0003,ds002236,sub-03,,task-VisRhyme,,run-01,288.801,4.443,0,control,1.229,1,RhymeSpell/null.bmp,RhymeSpell/null.bmp
ds002236_sub-0003,ds002236,sub-03,,task-VisRhyme,,run-01,293.244,4.443,4,O-P-,1.412,1,RhymeSpell/storm.bmp,RhymeSpell/chose2.bmp
ds002236_sub-0003,ds002236,sub-03,,task-VisRhyme,,run-01,297.687,4.443,0,control,1.654,1,RhymeSpell/null.bmp,RhymeSpell/null.bmp
ds002236_sub-0003,ds002236,sub-03,,task-VisRhyme,,run-01,302.13,4.443,2,O+P-,1.306,1,RhymeSpell/prize.bmp,RhymeSpell/rise1.bmp
ds002236_sub-0003,ds002236,sub-03,,task-VisRhyme,,run-01,306.573,4.443,0,control,0.725,1,RhymeSpell/null.bmp,RhymeSpell/null.bmp
ds002236_sub-0003,ds002236,sub-03,,task-VisRhyme,,run-01,311.016,4.443,1,O+P+,1.715,1,RhymeSpell/fought.bmp,RhymeSpell/sought2.bmp
ds002236_sub-0003,ds002236,sub-03,,task-VisRhyme,,run-01,315.459,4.442,4,O-P-,1.182,1,RhymeSpell/wage.bmp,RhymeSpell/spice1.bmp
ds002236_sub-0003,ds002236,sub-03,,task-VisRhyme,,run-01,319.901,4.443,1,O+P+,1.568,1,RhymeSpell/beast.bmp,RhymeSpell/least2.bmp
ds002236_sub-0003,ds002236,sub-03,,task-VisRhyme,,run-01,324.344,4.443,5,perceptual,1.344,1,Symbols/i.bmp,Symbols/i2.bmp
ds002236_sub-0003,ds002236,sub-03,,task-VisRhyme,,run-01,328.787,4.443,5,perceptual,1.271,1,Symbols/r.bmp,Symbols/z2.bmp
ds002236_sub-0003,ds002236,sub-03,,task-VisRhyme,,run-01,333.23,4.443,0,control,3.133,1,RhymeSpell/null.bmp,RhymeSpell/null.bmp
ds002236_sub-0003,ds002236,sub-03,,task-VisRhyme,,run-01,337.673,4.443,4,O-P-,1.266,1,RhymeSpell/dome.bmp,RhymeSpell/fool2.bmp
ds002236_sub-0003,ds002236,sub-03,,task-VisRhyme,,run-01,342.116,4.442,0,control,1.413,1,RhymeSpell/null.bmp,RhymeSpell/null.bmp
ds002236_sub-0003,ds002236,sub-03,,task-VisRhyme,,run-01,346.558,4.443,1,O+P+,1.541,1,RhymeSpell/grant.bmp,RhymeSpell/slant1.bmp
ds002236_sub-0003,ds002236,sub-03,,task-VisRhyme,,run-01,351.001,4.443,1,O+P+,0.816,0,RhymeSpell/numb.bmp,RhymeSpell/thumb2.bmp
ds002236_sub-0003,ds002236,sub-03,,task-VisRhyme,,run-01,355.444,4.443,1,O+P+,2.394,1,RhymeSpell/chess.bmp,RhymeSpell/press2.bmp
ds002236_sub-0003,ds002236,sub-03,,task-VisRhyme,,run-01,359.887,4.443,6,perceptual_complex,1.384,1,Symbols/hio.bmp,Symbols/hio2.bmp
ds002236_sub-0003,ds002236,sub-03,,task-VisRhyme,,run-01,364.33,4.443,3,O-P+,1.666,1,RhymeSpell/damp.bmp,RhymeSpell/swamp1.bmp
ds002236_sub-0003,ds002236,sub-03,,task-VisRhyme,,run-01,368.773,4.443,2,O+P-,2.263,1,RhymeSpell/true.bmp,RhymeSpell/grew2.bmp
ds002236_sub-0003,ds002236,sub-03,,task-VisRhyme,,run-01,373.216,4.442,0,control,1.664,1,RhymeSpell/null.bmp,RhymeSpell/null.bmp
ds002236_sub-0003,ds002236,sub-03,,task-VisRhyme,,run-01,377.658,4.443,5,perceptual,1.221,1,Symbols/p.bmp,Symbols/s1.bmp
ds002236_sub-0003,ds002236,sub-03,,task-VisRhyme,,run-01,382.101,4.443,3,O-P+,1.379,0,RhymeSpell/shown.bmp,RhymeSpell/clown2.bmp
ds002236_sub-0003,ds002236,sub-03,,task-VisRhyme,,run-01,386.544,4.443,4,O-P-,1.271,1,RhymeSpell/paint.bmp,RhymeSpell/sigh2.bmp
ds002236_sub-0003,ds002236,sub-03,,task-VisRhyme,,run-01,390.987,4.443,1,O+P+,1.298,1,RhymeSpell/stone.bmp,RhymeSpell/zone1.bmp
ds002236_sub-0003,ds002236,sub-03,,task-VisRhyme,,run-01,395.43,4.443,0,control,1.484,1,RhymeSpell/null.bmp,RhymeSpell/null.bmp
ds002236_sub-0003,ds002236,sub-03,,task-VisRhyme,,run-01,399.873,4.442,6,perceptual_complex,1.764,1,Symbols/mey.bmp,Symbols/mey2.bmp
ds002236_sub-0003,ds002236,sub-03,,task-VisRhyme,,run-01,404.315,4.443,0,control,1.534,1,RhymeSpell/null.bmp,RhymeSpell/null.bmp
ds002236_sub-0003,ds002236,sub-03,,task-VisRhyme,,run-01,408.758,4.443,0,control,3.087,1,RhymeSpell/null.bmp,RhymeSpell/null.bmp
ds002236_sub-0003,ds002236,sub-03,,task-VisRhyme,,run-01,413.201,4.443,2,O+P-,2.251,1,RhymeSpell/spear.bmp,RhymeSpell/sphere2.bmp
ds002236_sub-0003,ds002236,sub-03,,task-VisRhyme,,run-01,417.644,4.443,0,control,1.476,1,RhymeSpell/null.bmp,RhymeSpell/null.bmp
ds002236_sub-0003,ds002236,sub-03,,task-VisRhyme,,run-01,422.087,4.443,6,perceptual_complex,2.054,1,Symbols/odt.bmp,Symbols/odt2.bmp
ds002236_sub-0003,ds002236,sub-03,,task-VisRhyme,,run-01,426.53,4.442,2,O+P-,1.827,1,RhymeSpell/pro.bmp,RhymeSpell/mow2.bmp
ds002236_sub-0003,ds002236,sub-03,,task-VisRhyme,,run-01,430.972,4.443,0,control,1.412,1,RhymeSpell/null.bmp,RhymeSpell/null.bmp
ds002236_sub-0003,ds002236,sub-03,,task-VisRhyme,,run-01,435.415,4.443,4,O-P-,1.987,0,RhymeSpell/home.bmp,RhymeSpell/form2.bmp
ds002236_sub-0003,ds002236,sub-03,,task-VisRhyme,,run-01,439.858,4.443,3,O-P+,1.281,0,RhymeSpell/smooth.bmp,RhymeSpell/booth2.bmp
ds002236_sub-0003,ds002236,sub-03,,task-VisRhyme,,run-01,444.301,4.443,0,control,3.012,1,RhymeSpell/null.bmp,RhymeSpell/null.bmp
ds002236_sub-0003,ds002236,sub-03,,task-VisRhyme,,run-01,448.744,4.443,1,O+P+,1.336,1,RhymeSpell/grief.bmp,RhymeSpell/thief1.bmp
ds002236_sub-0003,ds002236,sub-03,,task-VisRhyme,,run-01,453.187,4.443,2,O+P-,1.866,1,RhymeSpell/top.bmp,RhymeSpell/swap2.bmp
ds002236_sub-0003,ds002236,sub-03,,task-VisRhyme,,run-01,457.63,4.442,5,perceptual,1.171,1,Symbols/v.bmp,Symbols/h1.bmp
ds002236_sub-0003,ds002236,sub-03,,task-VisRhyme,,run-01,462.072,4.443,0,control,1.843,1,RhymeSpell/null.bmp,RhymeSpell/null.bmp
ds002236_sub-0003,ds002236,sub-03,,task-VisRhyme,,run-01,466.515,4.443,5,perceptual,1.252,1,Symbols/h.bmp,Symbols/c2.bmp
ds002236_sub-0003,ds002236,sub-03,,task-VisRhyme,,run-01,470.958,4.443,0,control,1.741,1,RhymeSpell/null.bmp,RhymeSpell/null.bmp
ds002236_sub-0003,ds002236,sub-03,,task-VisRhyme,,run-01,475.401,4.439,4,O-P-,2.091,1,RhymeSpell/dream.bmp,RhymeSpell/blame1.bmp
ds002236_sub-0003,ds002236,sub-03,,task-VisRhyme,,run-02,0,4.443,2,O+P-,1.117,1,RhymeSpell/crawl.bmp,RhymeSpell/ball1.bmp
ds002236_sub-0003,ds002236,sub-03,,task-VisRhyme,,run-02,4.443,4.443,2,O+P-,1.334,1,RhymeSpell/moan.bmp,RhymeSpell/bone1.bmp
ds002236_sub-0003,ds002236,sub-03,,task-VisRhyme,,run-02,8.886,4.442,0,control,1.607,1,RhymeSpell/null.bmp,RhymeSpell/null.bmp
ds002236_sub-0003,ds002236,sub-03,,task-VisRhyme,,run-02,13.328,4.443,3,O-P+,1.403,1,RhymeSpell/harm.bmp,RhymeSpell/warm2.bmp
ds002236_sub-0003,ds002236,sub-03,,task-VisRhyme,,run-02,17.771,4.443,0,control,1.491,1,RhymeSpell/null.bmp,RhymeSpell/null.bmp
ds002236_sub-0003,ds002236,sub-03,,task-VisRhyme,,run-02,22.214,4.443,3,O-P+,1.299,1,RhymeSpell/dull.bmp,RhymeSpell/pull2.bmp
ds002236_sub-0003,ds002236,sub-03,,task-VisRhyme,,run-02,26.657,4.443,5,perceptual,1.494,1,Symbols/m.bmp,Symbols/m2.bmp
ds002236_sub-0003,ds002236,sub-03,,task-VisRhyme,,run-02,31.1,4.443,1,O+P+,1.154,1,RhymeSpell/dime.bmp,RhymeSpell/lime1.bmp
ds002236_sub-0003,ds002236,sub-03,,task-VisRhyme,,run-02,35.543,4.442,0,control,1.13,1,RhymeSpell/null.bmp,RhymeSpell/null.bmp
ds002236_sub-0003,ds002236,sub-03,,task-VisRhyme,,run-02,39.985,4.443,1,O+P+,1.362,1,RhymeSpell/thread.bmp,RhymeSpell/dread2.bmp
ds002236_sub-0003,ds002236,sub-03,,task-VisRhyme,,run-02,44.428,4.443,4,O-P-,1.542,0,RhymeSpell/dash.bmp,RhymeSpell/brow1.bmp
ds002236_sub-0003,ds002236,sub-03,,task-VisRhyme,,run-02,48.871,4.443,2,O+P-,1.448,0,RhymeSpell/though.bmp,RhymeSpell/blow2.bmp
ds002236_sub-0003,ds002236,sub-03,,task-VisRhyme,,run-02,53.314,4.443,2,O+P-,1.35,1,RhymeSpell/greet.bmp,RhymeSpell/neat1.bmp
ds002236_sub-0003,ds002236,sub-03,,task-VisRhyme,,run-02,57.757,4.443,0,control,1.286,1,RhymeSpell/null.bmp,RhymeSpell/null.bmp
ds002236_sub-0003,ds002236,sub-03,,task-VisRhyme,,run-02,62.2,4.443,1,O+P+,1.626,1,RhymeSpell/mad.bmp,RhymeSpell/pad2.bmp
ds002236_sub-0003,ds002236,sub-03,,task-VisRhyme,,run-02,66.643,4.442,0,control,1.39,1,RhymeSpell/null.bmp,RhymeSpell/null.bmp
ds002236_sub-0003,ds002236,sub-03,,task-VisRhyme,,run-02,71.085,4.443,5,perceptual,0.716,1,Symbols/z.bmp,Symbols/t1.bmp
ds002236_sub-0003,ds002236,sub-03,,task-VisRhyme,,run-02,75.528,4.443,0,control,1.55,1,RhymeSpell/null.bmp,RhymeSpell/null.bmp
ds002236_sub-0003,ds002236,sub-03,,task-VisRhyme,,run-02,79.971,4.443,3,O-P+,1.172,1,RhymeSpell/tough.bmp,RhymeSpell/cough2.bmp
ds002236_sub-0003,ds002236,sub-03,,task-VisRhyme,,run-02,84.414,4.443,6,perceptual_complex,1.159,1,Symbols/lfa.bmp,Symbols/lfa1.bmp
ds002236_sub-0003,ds002236,sub-03,,task-VisRhyme,,run-02,88.857,4.443,1,O+P+,0.015,0,RhymeSpell/drum.bmp,RhymeSpell/gum1.bmp
ds002236_sub-0003,ds002236,sub-03,,task-VisRhyme,,run-02,93.3,4.442,0,control,1.142,1,RhymeSpell/null.bmp,RhymeSpell/null.bmp
ds002236_sub-0003,ds002236,sub-03,,task-VisRhyme,,run-02,97.742,4.443,5,perceptual,1.635,1,Symbols/j.bmp,Symbols/o1.bmp
ds002236_sub-0003,ds002236,sub-03,,task-VisRhyme,,run-02,102.185,4.443,5,perceptual,1.858,1,Symbols/b.bmp,Symbols/b2.bmp
ds002236_sub-0003,ds002236,sub-03,,task-VisRhyme,,run-02,106.628,4.443,2,O+P-,1.785,1,RhymeSpell/comb.bmp,RhymeSpell/chrome2.bmp
ds002236_sub-0003,ds002236,sub-03,,task-VisRhyme,,run-02,111.071,4.443,0,control,1.386,1,RhymeSpell/null.bmp,RhymeSpell/null.bmp
ds002236_sub-0003,ds002236,sub-03,,task-VisRhyme,,run-02,115.514,4.443,3,O-P+,1.33,0,RhymeSpell/couch.bmp,RhymeSpell/touch1.bmp
ds002236_sub-0003,ds002236,sub-03,,task-VisRhyme,,run-02,119.957,4.443,0,control,1.612,1,RhymeSpell/null.bmp,RhymeSpell/null.bmp
ds002236_sub-0003,ds002236,sub-03,,task-VisRhyme,,run-02,124.4,4.442,6,perceptual_complex,1.288,1,Symbols/zti.bmp,Symbols/zvi1.bmp
ds002236_sub-0003,ds002236,sub-03,,task-VisRhyme,,run-02,128.842,4.443,0,control,1.837,1,RhymeSpell/null.bmp,RhymeSpell/null.bmp
ds002236_sub-0003,ds002236,sub-03,,task-VisRhyme,,run-02,133.285,4.443,3,O-P+,1.111,0,RhymeSpell/gull.bmp,RhymeSpell/bull2.bmp
ds002236_sub-0003,ds002236,sub-03,,task-VisRhyme,,run-02,137.728,4.443,4,O-P-,0.841,1,RhymeSpell/goes.bmp,RhymeSpell/lap2.bmp
ds002236_sub-0003,ds002236,sub-03,,task-VisRhyme,,run-02,142.171,4.443,5,perceptual,1.59,1,Symbols/y.bmp,Symbols/y1.bmp
ds002236_sub-0003,ds002236,sub-03,,task-VisRhyme,,run-02,146.614,4.443,1,O+P+,1.176,1,RhymeSpell/pay.bmp,RhymeSpell/play2.bmp
ds002236_sub-0003,ds002236,sub-03,,task-VisRhyme,,run-02,151.057,4.442,0,control,1.349,1,RhymeSpell/null.bmp,RhymeSpell/null.bmp
ds002236_sub-0003,ds002236,sub-03,,task-VisRhyme,,run-02,155.499,4.443,4,O-P-,1.35,1,RhymeSpell/staff.bmp,RhymeSpell/gain2.bmp
ds002236_sub-0003,ds002236,sub-03,,task-VisRhyme,,run-02,159.942,4.443,5,perceptual,1.53,1,Symbols/a.bmp,Symbols/a1.bmp
ds002236_sub-0003,ds002236,sub-03,,task-VisRhyme,,run-02,164.385,4.443,0,control,1.433,1,RhymeSpell/null.bmp,RhymeSpell/null.bmp
ds002236_sub-0003,ds002236,sub-03,,task-VisRhyme,,run-02,168.828,4.443,4,O-P-,1.952,1,RhymeSpell/scale.bmp,RhymeSpell/fly2.bmp
ds002236_sub-0003,ds002236,sub-03,,task-VisRhyme,,run-02,173.271,4.443,0,control,1.413,1,RhymeSpell/null.bmp,RhymeSpell/null.bmp
ds002236_sub-0003,ds002236,sub-03,,task-VisRhyme,,run-02,177.714,4.442,6,perceptual_complex,1.605,1,Symbols/drp.bmp,Symbols/drn1.bmp
ds002236_sub-0003,ds002236,sub-03,,task-VisRhyme,,run-02,182.156,4.443,0,control,1.916,1,RhymeSpell/null.bmp,RhymeSpell/null.bmp
ds002236_sub-0003,ds002236,sub-03,,task-VisRhyme,,run-02,186.599,4.443,1,O+P+,2.147,1,RhymeSpell/hint.bmp,RhymeSpell/print1.bmp
ds002236_sub-0003,ds002236,sub-03,,task-VisRhyme,,run-02,191.042,4.443,0,control,1.67,1,RhymeSpell/null.bmp,RhymeSpell/null.bmp
ds002236_sub-0003,ds002236,sub-03,,task-VisRhyme,,run-02,195.485,4.443,6,perceptual_complex,1.508,1,Symbols/ntv.bmp,Symbols/ntv2.bmp
ds002236_sub-0003,ds002236,sub-03,,task-VisRhyme,,run-02,199.928,4.443,0,control,1.957,1,RhymeSpell/null.bmp,RhymeSpell/null.bmp
ds002236_sub-0003,ds002236,sub-03,,task-VisRhyme,,run-02,204.371,4.443,5,perceptual,1.399,1,Symbols/e.bmp,Symbols/e1.bmp
ds002236_sub-0003,ds002236,sub-03,,task-VisRhyme,,run-02,208.814,4.442,0,control,2.276,1,RhymeSpell/null.bmp,RhymeSpell/null.bmp
ds002236_sub-0003,ds002236,sub-03,,task-VisRhyme,,run-02,213.256,4.443,3,O-P+,1.065,0,RhymeSpell/foot.bmp,RhymeSpell/hoot1.bmp
ds002236_sub-0003,ds002236,sub-03,,task-VisRhyme,,run-02,217.699,4.443,0,control,1.552,1,RhymeSpell/null.bmp,RhymeSpell/null.bmp
ds002236_sub-0003,ds002236,sub-03,,task-VisRhyme,,run-02,222.142,4.443,3,O-P+,1.485,0,RhymeSpell/glove.bmp,RhymeSpell/drove2.bmp
ds002236_sub-0003,ds002236,sub-03,,task-VisRhyme,,run-02,226.585,4.443,0,control,1.544,1,RhymeSpell/null.bmp,RhymeSpell/null.bmp
ds002236_sub-0003,ds002236,sub-03,,task-VisRhyme,,run-02,231.028,4.443,2,O+P-,1.445,0,RhymeSpell/trade.bmp,RhymeSpell/paid2.bmp
ds002236_sub-0003,ds002236,sub-03,,task-VisRhyme,,run-02,235.471,4.442,3,O-P+,1.575,0,RhymeSpell/moth.bmp,RhymeSpell/both2.bmp
ds002236_sub-0003,ds002236,sub-03,,task-VisRhyme,,run-02,239.913,4.443,4,O-P-,1.478,1,RhymeSpell/start.bmp,RhymeSpell/pure2.bmp
ds002236_sub-0003,ds002236,sub-03,,task-VisRhyme,,run-02,244.356,4.443,6,perceptual_complex,1.585,1,Symbols/gbk.bmp,Symbols/rbk2.bmp
ds002236_sub-0003,ds002236,sub-03,,task-VisRhyme,,run-02,248.799,4.443,0,control,1.994,1,RhymeSpell/null.bmp,RhymeSpell/null.bmp
ds002236_sub-0003,ds002236,sub-03,,task-VisRhyme,,run-02,253.242,4.443,5,perceptual,1.403,1,Symbols/f.bmp,Symbols/f1.bmp
ds002236_sub-0003,ds002236,sub-03,,task-VisRhyme,,run-02,257.685,4.443,0,control,1.965,1,RhymeSpell/null.bmp,RhymeSpell/null.bmp
ds002236_sub-0003,ds002236,sub-03,,task-VisRhyme,,run-02,262.128,4.443,6,perceptual_complex,1.282,1,Symbols/zsj.bmp,Symbols/wsj1.bmp
ds002236_sub-0003,ds002236,sub-03,,task-VisRhyme,,run-02,266.571,4.442,0,control,1.792,1,RhymeSpell/null.bmp,RhymeSpell/null.bmp
ds002236_sub-0003,ds002236,sub-03,,task-VisRhyme,,run-02,271.013,4.443,1,O+P+,1.034,1,RhymeSpell/wall.bmp,RhymeSpell/tall1.bmp
ds002236_sub-0003,ds002236,sub-03,,task-VisRhyme,,run-02,275.456,4.443,0,control,1.8,1,RhymeSpell/null.bmp,RhymeSpell/null.bmp
ds002236_sub-0003,ds002236,sub-03,,task-VisRhyme,,run-02,279.899,4.443,2,O+P-,1.748,1,RhymeSpell/glad.bmp,RhymeSpell/plaid1.bmp
ds002236_sub-0003,ds002236,sub-03,,task-VisRhyme,,run-02,284.342,4.443,0,control,1.178,1,RhymeSpell/null.bmp,RhymeSpell/null.bmp
ds002236_sub-0003,ds002236,sub-03,,task-VisRhyme,,run-02,288.785,4.443,5,perceptual,1.243,1,Symbols/o.bmp,Symbols/d1.bmp
ds002236_sub-0003,ds002236,sub-03,,task-VisRhyme,,run-02,293.228,4.442,0,control,1.201,1,RhymeSpell/null.bmp,RhymeSpell/null.bmp
ds002236_sub-0003,ds002236,sub-03,,task-VisRhyme,,run-02,297.67,4.443,4,O-P-,1.458,1,RhymeSpell/strut.bmp,RhymeSpell/glint2.bmp
ds002236_sub-0003,ds002236,sub-03,,task-VisRhyme,,run-02,302.113,4.443,2,O+P-,1.46,1,RhymeSpell/sheet.bmp,RhymeSpell/heat1.bmp
ds002236_sub-0003,ds002236,sub-03,,task-VisRhyme,,run-02,306.556,4.443,6,perceptual_complex,1.248,1,Symbols/lwy.bmp,Symbols/lwy1.bmp
ds002236_sub-0003,ds002236,sub-03,,task-VisRhyme,,run-02,310.999,4.443,2,O+P-,1.832,1,RhymeSpell/whom.bmp,RhymeSpell/womb1.bmp
ds002236_sub-0003,ds002236,sub-03,,task-VisRhyme,,run-02,315.442,4.443,4,O-P-,1.554,1,RhymeSpell/spare.bmp,RhymeSpell/cow1.bmp
ds002236_sub-0003,ds002236,sub-03,,task-VisRhyme,,run-02,319.885,4.442,0,control,1.681,1,RhymeSpell/null.bmp,RhymeSpell/null.bmp
ds002236_sub-0003,ds002236,sub-03,,task-VisRhyme,,run-02,324.327,4.443,3,O-P+,1.592,1,RhymeSpell/fat.bmp,RhymeSpell/swat2.bmp
ds002236_sub-0003,ds002236,sub-03,,task-VisRhyme,,run-02,328.77,4.443,4,O-P-,1.633,1,RhymeSpell/team.bmp,RhymeSpell/brief2.bmp
ds002236_sub-0003,ds002236,sub-03,,task-VisRhyme,,run-02,333.213,4.443,0,control,1.408,1,RhymeSpell/null.bmp,RhymeSpell/null.bmp
ds002236_sub-0003,ds002236,sub-03,,task-VisRhyme,,run-02,337.656,4.443,5,perceptual,1.474,1,Symbols/k.bmp,Symbols/k1.bmp
ds002236_sub-0003,ds002236,sub-03,,task-VisRhyme,,run-02,342.099,4.443,0,control,1.398,1,RhymeSpell/null.bmp,RhymeSpell/null.bmp
ds002236_sub-0003,ds002236,sub-03,,task-VisRhyme,,run-02,346.542,4.443,3,O-P+,2.291,1,RhymeSpell/bad.bmp,RhymeSpell/wad2.bmp
ds002236_sub-0003,ds002236,sub-03,,task-VisRhyme,,run-02,350.985,4.442,1,O+P+,2.304,1,RhymeSpell/glare.bmp,RhymeSpell/share1.bmp
ds002236_sub-0003,ds002236,sub-03,,task-VisRhyme,,run-02,355.427,4.443,0,control,1.941,1,RhymeSpell/null.bmp,RhymeSpell/null.bmp
ds002236_sub-0003,ds002236,sub-03,,task-VisRhyme,,run-02,359.87,4.443,1,O+P+,1.182,1,RhymeSpell/cold.bmp,RhymeSpell/told1.bmp
ds002236_sub-0003,ds002236,sub-03,,task-VisRhyme,,run-02,364.313,4.443,6,perceptual_complex,1.27,1,Symbols/lik.bmp,Symbols/lik1.bmp
ds002236_sub-0003,ds002236,sub-03,,task-VisRhyme,,run-02,368.756,4.443,1,O+P+,2.622,0,RhymeSpell/dawn.bmp,RhymeSpell/lawn1.bmp
ds002236_sub-0003,ds002236,sub-03,,task-VisRhyme,,run-02,373.199,4.443,1,O+P+,1.347,1,RhymeSpell/broke.bmp,RhymeSpell/joke1.bmp
ds002236_sub-0003,ds002236,sub-03,,task-VisRhyme,,run-02,377.642,4.442,4,O-P-,1.512,1,RhymeSpell/craft.bmp,RhymeSpell/young1.bmp
ds002236_sub-0003,ds002236,sub-03,,task-VisRhyme,,run-02,382.084,4.443,0,control,1.772,1,RhymeSpell/null.bmp,RhymeSpell/null.bmp
ds002236_sub-0003,ds002236,sub-03,,task-VisRhyme,,run-02,386.527,4.443,3,O-P+,1.513,1,RhymeSpell/hull.bmp,RhymeSpell/full1.bmp
ds002236_sub-0003,ds002236,sub-03,,task-VisRhyme,,run-02,390.97,4.443,3,O-P+,1.177,0,RhymeSpell/freight.bmp,RhymeSpell/height2.bmp
ds002236_sub-0003,ds002236,sub-03,,task-VisRhyme,,run-02,395.413,4.443,5,perceptual,1.181,1,Symbols/g.bmp,Symbols/p2.bmp
ds002236_sub-0003,ds002236,sub-03,,task-VisRhyme,,run-02,399.856,4.443,2,O+P-,1.656,1,RhymeSpell/stool.bmp,RhymeSpell/ghoul1.bmp
ds002236_sub-0003,ds002236,sub-03,,task-VisRhyme,,run-02,404.299,4.442,2,O+P-,1.241,1,RhymeSpell/hoe.bmp,RhymeSpell/throw2.bmp
ds002236_sub-0003,ds002236,sub-03,,task-VisRhyme,,run-02,408.741,4.443,0,control,1.592,1,RhymeSpell/null.bmp,RhymeSpell/null.bmp
ds002236_sub-0003,ds002236,sub-03,,task-VisRhyme,,run-02,413.184,4.443,6,perceptual_complex,1.812,1,Symbols/one.bmp,Symbols/one2.bmp
ds002236_sub-0003,ds002236,sub-03,,task-VisRhyme,,run-02,417.627,4.443,3,O-P+,1.751,0,RhymeSpell/cost.bmp,RhymeSpell/ghost2.bmp
ds002236_sub-0003,ds002236,sub-03,,task-VisRhyme,,run-02,422.07,4.443,0,control,1.404,1,RhymeSpell/null.bmp,RhymeSpell/null.bmp
ds002236_sub-0003,ds002236,sub-03,,task-VisRhyme,,run-02,426.513,4.443,6,perceptual_complex,1.205,1,Symbols/hvj.bmp,Symbols/hvj1.bmp
ds002236_sub-0003,ds002236,sub-03,,task-VisRhyme,,run-02,430.956,4.443,2,O+P-,1.558,1,RhymeSpell/gas.bmp,RhymeSpell/pass1.bmp
ds002236_sub-0003,ds002236,sub-03,,task-VisRhyme,,run-02,435.399,4.442,3,O-P+,1.396,1,RhymeSpell/blood.bmp,RhymeSpell/wood1.bmp
ds002236_sub-0003,ds002236,sub-03,,task-VisRhyme,,run-02,439.841,4.443,0,control,1.802,1,RhymeSpell/null.bmp,RhymeSpell/null.bmp
ds002236_sub-0003,ds002236,sub-03,,task-VisRhyme,,run-02,444.284,4.443,4,O-P-,1.745,1,RhymeSpell/vend.bmp,RhymeSpell/space1.bmp
ds002236_sub-0003,ds002236,sub-03,,task-VisRhyme,,run-02,448.727,4.443,2,O+P-,1.642,1,RhymeSpell/choose.bmp,RhymeSpell/lose2.bmp
ds002236_sub-0003,ds002236,sub-03,,task-VisRhyme,,run-02,453.17,4.443,6,perceptual_complex,1.967,1,Symbols/rbe.bmp,Symbols/rte1.bmp
ds002236_sub-0003,ds002236,sub-03,,task-VisRhyme,,run-02,457.613,4.443,0,control,1.137,1,RhymeSpell/null.bmp,RhymeSpell/null.bmp
ds002236_sub-0003,ds002236,sub-03,,task-VisRhyme,,run-02,462.056,4.442,6,perceptual_complex,1.176,1,Symbols/wug.bmp,Symbols/wyg2.bmp
ds002236_sub-0003,ds002236,sub-03,,task-VisRhyme,,run-02,466.498,4.443,5,perceptual,1.444,1,Symbols/d.bmp,Symbols/r2.bmp
ds002236_sub-0003,ds002236,sub-03,,task-VisRhyme,,run-02,470.941,4.443,0,control,1.187,1,RhymeSpell/null.bmp,RhymeSpell/null.bmp
ds002236_sub-0003,ds002236,sub-03,,task-VisRhyme,,run-02,475.384,4.439,0,control,1.18,1,RhymeSpell/null.bmp,RhymeSpell/null.bmp
ds002236_sub-0004,ds002236,sub-04,,task-VisRhyme,,run-01,0,4.443,3,O-P+,1.972,1,RhymeSpell/mouth.bmp,RhymeSpell/youth1.bmp
ds002236_sub-0004,ds002236,sub-04,,task-VisRhyme,,run-01,4.443,4.442,2,O+P-,1.301,1,RhymeSpell/tone.bmp,RhymeSpell/known1.bmp
ds002236_sub-0004,ds002236,sub-04,,task-VisRhyme,,run-01,8.885,4.443,5,perceptual,1.084,1,Symbols/t.bmp,Symbols/g2.bmp
ds002236_sub-0004,ds002236,sub-04,,task-VisRhyme,,run-01,13.328,4.443,0,control,0.621,1,RhymeSpell/null.bmp,RhymeSpell/null.bmp
ds002236_sub-0004,ds002236,sub-04,,task-VisRhyme,,run-01,17.771,4.443,3,O-P+,1.061,0,RhymeSpell/pool.bmp,RhymeSpell/wool2.bmp
ds002236_sub-0004,ds002236,sub-04,,task-VisRhyme,,run-01,22.214,4.443,0,control,0.626,1,RhymeSpell/null.bmp,RhymeSpell/null.bmp
ds002236_sub-0004,ds002236,sub-04,,task-VisRhyme,,run-01,26.657,4.443,5,perceptual,0.893,1,Symbols/w.bmp,Symbols/w2.bmp
ds002236_sub-0004,ds002236,sub-04,,task-VisRhyme,,run-01,31.1,4.442,5,perceptual,0.672,1,Symbols/u.bmp,Symbols/u2.bmp
ds002236_sub-0004,ds002236,sub-04,,task-VisRhyme,,run-01,35.542,4.443,1,O+P+,1.107,1,RhymeSpell/meal.bmp,RhymeSpell/seal1.bmp
ds002236_sub-0004,ds002236,sub-04,,task-VisRhyme,,run-01,39.985,4.443,0,control,NA,0,RhymeSpell/null.bmp,RhymeSpell/null.bmp
ds002236_sub-0004,ds002236,sub-04,,task-VisRhyme,,run-01,44.428,4.443,3,O-P+,1.699,0,RhymeSpell/low.bmp,RhymeSpell/vow1.bmp
ds002236_sub-0004,ds002236,sub-04,,task-VisRhyme,,run-01,48.871,4.443,6,perceptual_complex,0.837,1,Symbols/mfc.bmp,Symbols/mfc1.bmp
ds002236_sub-0004,ds002236,sub-04,,task-VisRhyme,,run-01,53.314,4.443,0,control,0.612,1,RhymeSpell/null.bmp,RhymeSpell/null.bmp
ds002236_sub-0004,ds002236,sub-04,,task-VisRhyme,,run-01,57.757,4.443,0,control,0.935,1,RhymeSpell/null.bmp,RhymeSpell/null.bmp
ds002236_sub-0004,ds002236,sub-04,,task-VisRhyme,,run-01,62.2,4.442,4,O-P-,1.572,1,RhymeSpell/wrist.bmp,RhymeSpell/friend2.bmp
ds002236_sub-0004,ds002236,sub-04,,task-VisRhyme,,run-01,66.642,4.443,4,O-P-,1.208,1,RhymeSpell/halt.bmp,RhymeSpell/stain2.bmp
ds002236_sub-0004,ds002236,sub-04,,task-VisRhyme,,run-01,71.085,4.443,0,control,1.389,1,RhymeSpell/null.bmp,RhymeSpell/null.bmp
ds002236_sub-0004,ds002236,sub-04,,task-VisRhyme,,run-01,75.528,4.443,6,perceptual_complex,1.057,1,Symbols/crs.bmp,Symbols/cre2.bmp
ds002236_sub-0004,ds002236,sub-04,,task-VisRhyme,,run-01,79.971,4.443,6,perceptual_complex,0.989,1,Symbols/pcf.bmp,Symbols/kcf2.bmp
ds002236_sub-0004,ds002236,sub-04,,task-VisRhyme,,run-01,84.414,4.443,0,control,1.516,1,RhymeSpell/null.bmp,RhymeSpell/null.bmp
ds002236_sub-0004,ds002236,sub-04,,task-VisRhyme,,run-01,88.857,4.442,1,O+P+,1.492,1,RhymeSpell/cure.bmp,RhymeSpell/sure2.bmp
ds002236_sub-0004,ds002236,sub-04,,task-VisRhyme,,run-01,93.299,4.443,2,O+P-,1.212,1,RhymeSpell/sleek.bmp,RhymeSpell/speak1.bmp
ds002236_sub-0004,ds002236,sub-04,,task-VisRhyme,,run-01,97.742,4.443,0,control,1.297,1,RhymeSpell/null.bmp,RhymeSpell/null.bmp
ds002236_sub-0004,ds002236,sub-04,,task-VisRhyme,,run-01,102.185,4.443,4,O-P-,1.345,1,RhymeSpell/trust.bmp,RhymeSpell/chalk2.bmp
ds002236_sub-0004,ds002236,sub-04,,task-VisRhyme,,run-01,106.628,4.443,2,O+P-,1.222,1,RhymeSpell/street.bmp,RhymeSpell/wheat2.bmp
ds002236_sub-0004,ds002236,sub-04,,task-VisRhyme,,run-01,111.071,4.443,0,control,0.846,1,RhymeSpell/null.bmp,RhymeSpell/null.bmp
ds002236_sub-0004,ds002236,sub-04,,task-VisRhyme,,run-01,115.514,4.442,6,perceptual_complex,0.727,1,Symbols/van.bmp,Symbols/van2.bmp
ds002236_sub-0004,ds002236,sub-04,,task-VisRhyme,,run-01,119.956,4.443,6,perceptual_complex,1.161,1,Symbols/jzd.bmp,Symbols/jbd2.bmp
ds002236_sub-0004,ds002236,sub-04,,task-VisRhyme,,run-01,124.399,4.443,0,control,1.634,1,RhymeSpell/null.bmp,RhymeSpell/null.bmp
ds002236_sub-0004,ds002236,sub-04,,task-VisRhyme,,run-01,128.842,4.443,5,perceptual,1.018,1,Symbols/s.bmp,Symbols/j2.bmp
ds002236_sub-0004,ds002236,sub-04,,task-VisRhyme,,run-01,133.285,4.443,0,control,0.45,1,RhymeSpell/null.bmp,RhymeSpell/null.bmp
ds002236_sub-0004,ds002236,sub-04,,task-VisRhyme,,run-01,137.728,4.443,2,O+P-,1.079,1,RhymeSpell/rear.bmp,RhymeSpell/mere1.bmp
ds002236_sub-0004,ds002236,sub-04,,task-VisRhyme,,run-01,142.171,4.443,1,O+P+,1.287,1,RhymeSpell/crown.bmp,RhymeSpell/town2.bmp
ds002236_sub-0004,ds002236,sub-04,,task-VisRhyme,,run-01,146.614,4.442,3,O-P+,1.218,0,RhymeSpell/sword.bmp,RhymeSpell/word2.bmp
ds002236_sub-0004,ds002236,sub-04,,task-VisRhyme,,run-01,151.056,4.443,6,perceptual_complex,0.764,1,Symbols/ksg.bmp,Symbols/ksj2.bmp
ds002236_sub-0004,ds002236,sub-04,,task-VisRhyme,,run-01,155.499,4.443,3,O-P+,0.855,0,RhymeSpell/head.bmp,RhymeSpell/bead2.bmp
ds002236_sub-0004,ds002236,sub-04,,task-VisRhyme,,run-01,159.942,4.443,0,control,1.642,1,RhymeSpell/null.bmp,RhymeSpell/null.bmp
ds002236_sub-0004,ds002236,sub-04,,task-VisRhyme,,run-01,164.385,4.443,5,perceptual,1.018,1,Symbols/l.bmp,Symbols/l2.bmp
ds002236_sub-0004,ds002236,sub-04,,task-VisRhyme,,run-01,168.828,4.443,0,control,0.432,1,RhymeSpell/null.bmp,RhymeSpell/null.bmp
ds002236_sub-0004,ds002236,sub-04,,task-VisRhyme,,run-01,173.271,4.442,6,perceptual_complex,0.999,1,Symbols/uab.bmp,Symbols/iab1.bmp
ds002236_sub-0004,ds002236,sub-04,,task-VisRhyme,,run-01,177.713,4.443,2,O+P-,1.35,0,RhymeSpell/size.bmp,RhymeSpell/wise2.bmp
ds002236_sub-0004,ds002236,sub-04,,task-VisRhyme,,run-01,182.156,4.443,4,O-P-,1.867,0,RhymeSpell/clash.bmp,RhymeSpell/worse1.bmp
ds002236_sub-0004,ds002236,sub-04,,task-VisRhyme,,run-01,186.599,4.443,5,perceptual,0.748,1,Symbols/c.bmp,Symbols/v1.bmp
ds002236_sub-0004,ds002236,sub-04,,task-VisRhyme,,run-01,191.042,4.443,0,control,0.59,1,RhymeSpell/null.bmp,RhymeSpell/null.bmp
ds002236_sub-0004,ds002236,sub-04,,task-VisRhyme,,run-01,195.485,4.443,0,control,NA,0,RhymeSpell/null.bmp,RhymeSpell/null.bmp
ds002236_sub-0004,ds002236,sub-04,,task-VisRhyme,,run-01,199.928,4.443,4,O-P-,2.005,1,RhymeSpell/loose.bmp,RhymeSpell/drew1.bmp
ds002236_sub-0004,ds002236,sub-04,,task-VisRhyme,,run-01,204.371,4.442,0,control,1.594,1,RhymeSpell/null.bmp,RhymeSpell/null.bmp
ds002236_sub-0004,ds002236,sub-04,,task-VisRhyme,,run-01,208.813,4.443,4,O-P-,1.226,1,RhymeSpell/yeast.bmp,RhymeSpell/tooth1.bmp
ds002236_sub-0004,ds002236,sub-04,,task-VisRhyme,,run-01,213.256,4.443,0,control,0.942,1,RhymeSpell/null.bmp,RhymeSpell/null.bmp
ds002236_sub-0004,ds002236,sub-04,,task-VisRhyme,,run-01,217.699,4.443,3,O-P+,1.117,1,RhymeSpell/shove.bmp,RhymeSpell/wove1.bmp
ds002236_sub-0004,ds002236,sub-04,,task-VisRhyme,,run-01,222.142,4.443,5,perceptual,1.361,1,Symbols/n.bmp,Symbols/n1.bmp
ds002236_sub-0004,ds002236,sub-04,,task-VisRhyme,,run-01,226.585,4.443,2,O+P-,1.222,1,RhymeSpell/chair.bmp,RhymeSpell/scare1.bmp
ds002236_sub-0004,ds002236,sub-04,,task-VisRhyme,,run-01,231.028,4.442,0,control,0.281,1,RhymeSpell/null.bmp,RhymeSpell/null.bmp
ds002236_sub-0004,ds002236,sub-04,,task-VisRhyme,,run-01,235.47,4.443,1,O+P+,1.259,1,RhymeSpell/dad.bmp,RhymeSpell/sad1.bmp
ds002236_sub-0004,ds002236,sub-04,,task-VisRhyme,,run-01,239.913,4.443,0,control,0.335,1,RhymeSpell/null.bmp,RhymeSpell/null.bmp
ds002236_sub-0004,ds002236,sub-04,,task-VisRhyme,,run-01,244.356,4.443,4,O-P-,2.299,1,RhymeSpell/beef.bmp,RhymeSpell/keep2.bmp
ds002236_sub-0004,ds002236,sub-04,,task-VisRhyme,,run-01,248.799,4.443,3,O-P+,1.921,1,RhymeSpell/broad.bmp,RhymeSpell/toad1.bmp
ds002236_sub-0004,ds002236,sub-04,,task-VisRhyme,,run-01,253.242,4.443,0,control,0.839,1,RhymeSpell/null.bmp,RhymeSpell/null.bmp
ds002236_sub-0004,ds002236,sub-04,,task-VisRhyme,,run-01,257.685,4.442,0,control,0.478,1,RhymeSpell/null.bmp,RhymeSpell/null.bmp
ds002236_sub-0004,ds002236,sub-04,,task-VisRhyme,,run-01,262.127,4.443,4,O-P-,1.146,1,RhymeSpell/rail.bmp,RhymeSpell/fast1.bmp
ds002236_sub-0004,ds002236,sub-04,,task-VisRhyme,,run-01,266.57,4.443,0,control,0.565,1,RhymeSpell/null.bmp,RhymeSpell/null.bmp
ds002236_sub-0004,ds002236,sub-04,,task-VisRhyme,,run-01,271.013,4.443,1,O+P+,1.217,1,RhymeSpell/leg.bmp,RhymeSpell/peg2.bmp
ds002236_sub-0004,ds002236,sub-04,,task-VisRhyme,,run-01,275.456,4.443,1,O+P+,1.08,1,RhymeSpell/mule.bmp,RhymeSpell/rule2.bmp
ds002236_sub-0004,ds002236,sub-04,,task-VisRhyme,,run-01,279.899,4.443,6,perceptual_complex,1.267,1,Symbols/upw.bmp,Symbols/upw1.bmp
ds002236_sub-0004,ds002236,sub-04,,task-VisRhyme,,run-01,284.342,4.442,6,perceptual_complex,1.018,1,Symbols/myh.bmp,Symbols/myl1.bmp
ds002236_sub-0004,ds002236,sub-04,,task-VisRhyme,,run-01,288.784,4.443,0,control,1.06,1,RhymeSpell/null.bmp,RhymeSpell/null.bmp
ds002236_sub-0004,ds002236,sub-04,,task-VisRhyme,,run-01,293.227,4.443,4,O-P-,1.542,1,RhymeSpell/storm.bmp,RhymeSpell/chose2.bmp
ds002236_sub-0004,ds002236,sub-04,,task-VisRhyme,,run-01,297.67,4.443,0,control,0.822,1,RhymeSpell/null.bmp,RhymeSpell/null.bmp
ds002236_sub-0004,ds002236,sub-04,,task-VisRhyme,,run-01,302.113,4.443,2,O+P-,1.672,1,RhymeSpell/prize.bmp,RhymeSpell/rise1.bmp
ds002236_sub-0004,ds002236,sub-04,,task-VisRhyme,,run-01,306.556,4.443,0,control,0.649,1,RhymeSpell/null.bmp,RhymeSpell/null.bmp
ds002236_sub-0004,ds002236,sub-04,,task-VisRhyme,,run-01,310.999,4.443,1,O+P+,1.18,1,RhymeSpell/fought.bmp,RhymeSpell/sought2.bmp
ds002236_sub-0004,ds002236,sub-04,,task-VisRhyme,,run-01,315.442,4.442,4,O-P-,2.111,1,RhymeSpell/wage.bmp,RhymeSpell/spice1.bmp
ds002236_sub-0004,ds002236,sub-04,,task-VisRhyme,,run-01,319.884,4.443,1,O+P+,1.173,1,RhymeSpell/beast.bmp,RhymeSpell/least2.bmp
ds002236_sub-0004,ds002236,sub-04,,task-VisRhyme,,run-01,324.327,4.443,5,perceptual,1.261,1,Symbols/i.bmp,Symbols/i2.bmp
ds002236_sub-0004,ds002236,sub-04,,task-VisRhyme,,run-01,328.77,4.443,5,perceptual,1.006,1,Symbols/r.bmp,Symbols/z2.bmp
ds002236_sub-0004,ds002236,sub-04,,task-VisRhyme,,run-01,333.213,4.443,0,control,0.815,1,RhymeSpell/null.bmp,RhymeSpell/null.bmp
ds002236_sub-0004,ds002236,sub-04,,task-VisRhyme,,run-01,337.656,4.443,4,O-P-,1.108,1,RhymeSpell/dome.bmp,RhymeSpell/fool2.bmp
ds002236_sub-0004,ds002236,sub-04,,task-VisRhyme,,run-01,342.099,4.442,0,control,0.798,1,RhymeSpell/null.bmp,RhymeSpell/null.bmp
ds002236_sub-0004,ds002236,sub-04,,task-VisRhyme,,run-01,346.541,4.443,1,O+P+,1.332,1,RhymeSpell/grant.bmp,RhymeSpell/slant1.bmp
ds002236_sub-0004,ds002236,sub-04,,task-VisRhyme,,run-01,350.984,4.443,1,O+P+,1.653,1,RhymeSpell/numb.bmp,RhymeSpell/thumb2.bmp
ds002236_sub-0004,ds002236,sub-04,,task-VisRhyme,,run-01,355.427,4.443,1,O+P+,1.543,0,RhymeSpell/chess.bmp,RhymeSpell/press2.bmp
ds002236_sub-0004,ds002236,sub-04,,task-VisRhyme,,run-01,359.87,4.443,6,perceptual_complex,1.229,1,Symbols/hio.bmp,Symbols/hio2.bmp
ds002236_sub-0004,ds002236,sub-04,,task-VisRhyme,,run-01,364.313,4.443,3,O-P+,1.17,1,RhymeSpell/damp.bmp,RhymeSpell/swamp1.bmp
ds002236_sub-0004,ds002236,sub-04,,task-VisRhyme,,run-01,368.756,4.443,2,O+P-,1.077,1,RhymeSpell/true.bmp,RhymeSpell/grew2.bmp
ds002236_sub-0004,ds002236,sub-04,,task-VisRhyme,,run-01,373.199,4.442,0,control,1.46,1,RhymeSpell/null.bmp,RhymeSpell/null.bmp
ds002236_sub-0004,ds002236,sub-04,,task-VisRhyme,,run-01,377.641,4.443,5,perceptual,0.467,0,Symbols/p.bmp,Symbols/s1.bmp
ds002236_sub-0004,ds002236,sub-04,,task-VisRhyme,,run-01,382.084,4.443,3,O-P+,1.603,1,RhymeSpell/shown.bmp,RhymeSpell/clown2.bmp
ds002236_sub-0004,ds002236,sub-04,,task-VisRhyme,,run-01,386.527,4.443,4,O-P-,1.585,1,RhymeSpell/paint.bmp,RhymeSpell/sigh2.bmp
ds002236_sub-0004,ds002236,sub-04,,task-VisRhyme,,run-01,390.97,4.443,1,O+P+,1.339,1,RhymeSpell/stone.bmp,RhymeSpell/zone1.bmp
ds002236_sub-0004,ds002236,sub-04,,task-VisRhyme,,run-01,395.413,4.443,0,control,0.601,1,RhymeSpell/null.bmp,RhymeSpell/null.bmp
ds002236_sub-0004,ds002236,sub-04,,task-VisRhyme,,run-01,399.856,4.442,6,perceptual_complex,0.948,1,Symbols/mey.bmp,Symbols/mey2.bmp
ds002236_sub-0004,ds002236,sub-04,,task-VisRhyme,,run-01,404.298,4.443,0,control,NA,0,RhymeSpell/null.bmp,RhymeSpell/null.bmp
ds002236_sub-0004,ds002236,sub-04,,task-VisRhyme,,run-01,408.741,4.443,0,control,NA,0,RhymeSpell/null.bmp,RhymeSpell/null.bmp
ds002236_sub-0004,ds002236,sub-04,,task-VisRhyme,,run-01,413.184,4.443,2,O+P-,1.576,0,RhymeSpell/spear.bmp,RhymeSpell/sphere2.bmp
ds002236_sub-0004,ds002236,sub-04,,task-VisRhyme,,run-01,417.627,4.443,0,control,0.323,1,RhymeSpell/null.bmp,RhymeSpell/null.bmp
ds002236_sub-0004,ds002236,sub-04,,task-VisRhyme,,run-01,422.07,4.443,6,perceptual_complex,0.656,1,Symbols/odt.bmp,Symbols/odt2.bmp
ds002236_sub-0004,ds002236,sub-04,,task-VisRhyme,,run-01,426.513,4.442,2,O+P-,0.967,1,RhymeSpell/pro.bmp,RhymeSpell/mow2.bmp
ds002236_sub-0004,ds002236,sub-04,,task-VisRhyme,,run-01,430.955,4.443,0,control,1.768,1,RhymeSpell/null.bmp,RhymeSpell/null.bmp
ds002236_sub-0004,ds002236,sub-04,,task-VisRhyme,,run-01,435.398,4.443,4,O-P-,1.66,0,RhymeSpell/home.bmp,RhymeSpell/form2.bmp
ds002236_sub-0004,ds002236,sub-04,,task-VisRhyme,,run-01,439.841,4.443,3,O-P+,1.819,1,RhymeSpell/smooth.bmp,RhymeSpell/booth2.bmp
ds002236_sub-0004,ds002236,sub-04,,task-VisRhyme,,run-01,444.284,4.443,0,control,1.166,1,RhymeSpell/null.bmp,RhymeSpell/null.bmp
ds002236_sub-0004,ds002236,sub-04,,task-VisRhyme,,run-01,448.727,4.443,1,O+P+,1.273,1,RhymeSpell/grief.bmp,RhymeSpell/thief1.bmp
ds002236_sub-0004,ds002236,sub-04,,task-VisRhyme,,run-01,453.17,4.443,2,O+P-,1.403,1,RhymeSpell/top.bmp,RhymeSpell/swap2.bmp
ds002236_sub-0004,ds002236,sub-04,,task-VisRhyme,,run-01,457.613,4.442,5,perceptual,1.045,1,Symbols/v.bmp,Symbols/h1.bmp
ds002236_sub-0004,ds002236,sub-04,,task-VisRhyme,,run-01,462.055,4.443,0,control,0.467,1,RhymeSpell/null.bmp,RhymeSpell/null.bmp
ds002236_sub-0004,ds002236,sub-04,,task-VisRhyme,,run-01,466.498,4.443,5,perceptual,1.236,1,Symbols/h.bmp,Symbols/c2.bmp
ds002236_sub-0004,ds002236,sub-04,,task-VisRhyme,,run-01,470.941,4.443,0,control,0.523,1,RhymeSpell/null.bmp,RhymeSpell/null.bmp
ds002236_sub-0004,ds002236,sub-04,,task-VisRhyme,,run-01,475.384,4.439,4,O-P-,1.267,1,RhymeSpell/dream.bmp,RhymeSpell/blame1.bmp
ds002236_sub-0004,ds002236,sub-04,,task-VisRhyme,,run-02,0,4.443,2,O+P-,1.945,1,RhymeSpell/crawl.bmp,RhymeSpell/ball1.bmp
ds002236_sub-0004,ds002236,sub-04,,task-VisRhyme,,run-02,4.443,4.443,2,O+P-,1.539,1,RhymeSpell/moan.bmp,RhymeSpell/bone1.bmp
ds002236_sub-0004,ds002236,sub-04,,task-VisRhyme,,run-02,8.886,4.443,0,control,0.469,1,RhymeSpell/null.bmp,RhymeSpell/null.bmp
ds002236_sub-0004,ds002236,sub-04,,task-VisRhyme,,run-02,13.329,4.443,3,O-P+,1.231,0,RhymeSpell/harm.bmp,RhymeSpell/warm2.bmp
ds002236_sub-0004,ds002236,sub-04,,task-VisRhyme,,run-02,17.772,4.442,0,control,0.575,1,RhymeSpell/null.bmp,RhymeSpell/null.bmp
ds002236_sub-0004,ds002236,sub-04,,task-VisRhyme,,run-02,22.214,4.443,3,O-P+,0.715,0,RhymeSpell/dull.bmp,RhymeSpell/pull2.bmp
ds002236_sub-0004,ds002236,sub-04,,task-VisRhyme,,run-02,26.657,4.443,5,perceptual,0.625,1,Symbols/m.bmp,Symbols/m2.bmp
ds002236_sub-0004,ds002236,sub-04,,task-VisRhyme,,run-02,31.1,4.443,1,O+P+,1.056,1,RhymeSpell/dime.bmp,RhymeSpell/lime1.bmp
ds002236_sub-0004,ds002236,sub-04,,task-VisRhyme,,run-02,35.543,4.443,0,control,0.65,1,RhymeSpell/null.bmp,RhymeSpell/null.bmp
ds002236_sub-0004,ds002236,sub-04,,task-VisRhyme,,run-02,39.986,4.443,1,O+P+,1.25,1,RhymeSpell/thread.bmp,RhymeSpell/dread2.bmp
ds002236_sub-0004,ds002236,sub-04,,task-VisRhyme,,run-02,44.429,4.443,4,O-P-,1.601,1,RhymeSpell/dash.bmp,RhymeSpell/brow1.bmp
ds002236_sub-0004,ds002236,sub-04,,task-VisRhyme,,run-02,48.872,4.442,2,O+P-,2.157,1,RhymeSpell/though.bmp,RhymeSpell/blow2.bmp
ds002236_sub-0004,ds002236,sub-04,,task-VisRhyme,,run-02,53.314,4.443,2,O+P-,1.287,1,RhymeSpell/greet.bmp,RhymeSpell/neat1.bmp
ds002236_sub-0004,ds002236,sub-04,,task-VisRhyme,,run-02,57.757,4.443,0,control,0.539,1,RhymeSpell/null.bmp,RhymeSpell/null.bmp
ds002236_sub-0004,ds002236,sub-04,,task-VisRhyme,,run-02,62.2,4.443,1,O+P+,0.792,1,RhymeSpell/mad.bmp,RhymeSpell/pad2.bmp
ds002236_sub-0004,ds002236,sub-04,,task-VisRhyme,,run-02,66.643,4.443,0,control,0.784,1,RhymeSpell/null.bmp,RhymeSpell/null.bmp
ds002236_sub-0004,ds002236,sub-04,,task-VisRhyme,,run-02,71.086,4.443,5,perceptual,0.783,1,Symbols/z.bmp,Symbols/t1.bmp
ds002236_sub-0004,ds002236,sub-04,,task-VisRhyme,,run-02,75.529,4.442,0,control,0.478,1,RhymeSpell/null.bmp,RhymeSpell/null.bmp
ds002236_sub-0004,ds002236,sub-04,,task-VisRhyme,,run-02,79.971,4.443,3,O-P+,2.084,1,RhymeSpell/tough.bmp,RhymeSpell/cough2.bmp
ds002236_sub-0004,ds002236,sub-04,,task-VisRhyme,,run-02,84.414,4.443,6,perceptual_complex,0.761,1,Symbols/lfa.bmp,Symbols/lfa1.bmp
ds002236_sub-0004,ds002236,sub-04,,task-VisRhyme,,run-02,88.857,4.443,1,O+P+,1.404,1,RhymeSpell/drum.bmp,RhymeSpell/gum1.bmp
ds002236_sub-0004,ds002236,sub-04,,task-VisRhyme,,run-02,93.3,4.443,0,control,1.282,1,RhymeSpell/null.bmp,RhymeSpell/null.bmp
ds002236_sub-0004,ds002236,sub-04,,task-VisRhyme,,run-02,97.743,4.443,5,perceptual,0.973,1,Symbols/j.bmp,Symbols/o1.bmp
ds002236_sub-0004,ds002236,sub-04,,task-VisRhyme,,run-02,102.186,4.442,5,perceptual,1.207,1,Symbols/b.bmp,Symbols/b2.bmp
ds002236_sub-0004,ds002236,sub-04,,task-VisRhyme,,run-02,106.628,4.443,2,O+P-,2.173,0,RhymeSpell/comb.bmp,RhymeSpell/chrome2.bmp
ds002236_sub-0004,ds002236,sub-04,,task-VisRhyme,,run-02,111.071,4.443,0,control,1.359,1,RhymeSpell/null.bmp,RhymeSpell/null.bmp
ds002236_sub-0004,ds002236,sub-04,,task-VisRhyme,,run-02,115.514,4.443,3,O-P+,1.615,1,RhymeSpell/couch.bmp,RhymeSpell/touch1.bmp
