unique_id,dataset,participant_id,session,task,acquisition,run,onset,duration,trial_type,condition,response_time,accuracy,stim1,stim2
ds001486_sub-0001,ds001486,sub-001,ses-T1,task-Rhyming,,run-01,0,4.012,2,O+P-,2.418,0,post,cost
ds001486_sub-0001,ds001486,sub-001,ses-T1,task-Rhyming,,run-01,4.012,3.009,5,control,0.673,1,n/a,/BLUEbox.bmp
ds001486_sub-0001,ds001486,sub-001,ses-T1,task-Rhyming,,run-01,7.021,4.414,6,perceptual,1.37,1,task-Rhyming/perceptual_o.bmp,task-Rhyming/perceptual_p.bmp
ds001486_sub-0001,ds001486,sub-001,ses-T1,task-Rhyming,,run-01,11.435,4.012,3,O-P+,1.35,1,rum,numb
ds001486_sub-0001,ds001486,sub-001,ses-T1,task-Rhyming,,run-01,15.447,3.811,5,control,NA,0,n/a,/BLUEbox.bmp
ds001486_sub-0001,ds001486,sub-001,ses-T1,task-Rhyming,,run-01,19.258,4.012,6,perceptual,1.292,0,task-Rhyming/perceptual_c.bmp,task-Rhyming/perceptual_u.bmp
ds001486_sub-0001,ds001486,sub-001,ses-T1,task-Rhyming,,run-01,23.27,4.012,1,O+P+,1.485,1,fought,sought
ds001486_sub-0001,ds001486,sub-001,ses-T1,task-Rhyming,,run-01,27.282,4.012,1,O+P+,1.284,1,scheme,theme
ds001486_sub-0001,ds001486,sub-001,ses-T1,task-Rhyming,,run-01,31.294,4.012,6,perceptual,1.358,1,task-Rhyming/perceptual_m.bmp,task-Rhyming/perceptual_n.bmp
ds001486_sub-0001,ds001486,sub-001,ses-T1,task-Rhyming,,run-01,35.306,4.413,1,O+P+,1.287,1,stool,fool
ds001486_sub-0001,ds001486,sub-001,ses-T1,task-Rhyming,,run-01,39.719,3.41,5,control,NA,0,n/a,/BLUEbox.bmp
ds001486_sub-0001,ds001486,sub-001,ses-T1,task-Rhyming,,run-01,43.129,4.414,1,O+P+,2.044,1,soak,oak
ds001486_sub-0001,ds001486,sub-001,ses-T1,task-Rhyming,,run-01,47.543,4.413,2,O+P-,2.573,0,threat,wheat
ds001486_sub-0001,ds001486,sub-001,ses-T1,task-Rhyming,,run-01,51.956,4.012,1,O+P+,1.378,1,thread,spread
ds001486_sub-0001,ds001486,sub-001,ses-T1,task-Rhyming,,run-01,55.968,4.413,3,O-P+,2.762,0,pile,trial
ds001486_sub-0001,ds001486,sub-001,ses-T1,task-Rhyming,,run-01,60.381,4.815,4,O-P-,1.661,0,swap,watch
ds001486_sub-0001,ds001486,sub-001,ses-T1,task-Rhyming,,run-01,65.196,3.811,5,control,0.746,1,n/a,/BLUEbox.bmp
ds001486_sub-0001,ds001486,sub-001,ses-T1,task-Rhyming,,run-01,69.007,3.41,5,control,0.587,1,n/a,/BLUEbox.bmp
ds001486_sub-0001,ds001486,sub-001,ses-T1,task-Rhyming,,run-01,72.417,4.413,4,O-P-,1.146,0,tough,dull
ds001486_sub-0001,ds001486,sub-001,ses-T1,task-Rhyming,,run-01,76.83,4.815,6,perceptual,1.623,0,task-Rhyming/perceptual_w.bmp,task-Rhyming/perceptual_e.bmp
ds001486_sub-0001,ds001486,sub-001,ses-T1,task-Rhyming,,run-01,81.645,4.814,1,O+P+,1.617,1,sweep,creep
ds001486_sub-0001,ds001486,sub-001,ses-T1,task-Rhyming,,run-01,86.459,4.815,6,perceptual,1.498,0,task-Rhyming/perceptual_k.bmp,task-Rhyming/perceptual_t.bmp
ds001486_sub-0001,ds001486,sub-001,ses-T1,task-Rhyming,,run-01,91.274,3.41,5,control,0.638,1,n/a,/BLUEbox.bmp
ds001486_sub-0001,ds001486,sub-001,ses-T1,task-Rhyming,,run-01,94.684,3.41,3,O-P+,0.628,1,stroke,soak
ds001486_sub-0001,ds001486,sub-001,ses-T1,task-Rhyming,,run-01,98.094,4.413,4,O-P-,1.396,0,trial,fall
ds001486_sub-0001,ds001486,sub-001,ses-T1,task-Rhyming,,run-01,102.507,4.815,6,perceptual,1.628,1,task-Rhyming/perceptual_k.bmp,task-Rhyming/perceptual_l.bmp
ds001486_sub-0001,ds001486,sub-001,ses-T1,task-Rhyming,,run-01,107.322,3.009,5,control,0.669,1,n/a,/BLUEbox.bmp
ds001486_sub-0001,ds001486,sub-001,ses-T1,task-Rhyming,,run-01,110.331,3.41,5,control,0.541,1,n/a,/BLUEbox.bmp
ds001486_sub-0001,ds001486,sub-001,ses-T1,task-Rhyming,,run-01,113.741,3.41,5,control,0.565,1,n/a,/BLUEbox.bmp
ds001486_sub-0001,ds001486,sub-001,ses-T1,task-Rhyming,,run-01,117.151,3.41,5,control,0.592,1,n/a,/BLUEbox.bmp
ds001486_sub-0001,ds001486,sub-001,ses-T1,task-Rhyming,,run-01,120.561,4.012,1,O+P+,1.289,1,beef,reef
ds001486_sub-0001,ds001486,sub-001,ses-T1,task-Rhyming,,run-01,124.573,3.009,5,control,NA,0,n/a,/BLUEbox.bmp
ds001486_sub-0001,ds001486,sub-001,ses-T1,task-Rhyming,,run-01,127.582,4.815,2,O+P-,1.861,0,wart,smart
ds001486_sub-0001,ds001486,sub-001,ses-T1,task-Rhyming,,run-01,132.397,4.814,2,O+P-,1.329,0,dose,pose
ds001486_sub-0001,ds001486,sub-001,ses-T1,task-Rhyming,,run-01,137.211,3.41,5,control,0.608,1,n/a,/BLUEbox.bmp
ds001486_sub-0001,ds001486,sub-001,ses-T1,task-Rhyming,,run-01,140.621,4.012,2,O+P-,1.235,0,touch,couch
ds001486_sub-0001,ds001486,sub-001,ses-T1,task-Rhyming,,run-01,144.633,4.012,6,perceptual,1.275,0,task-Rhyming/perceptual_v.bmp,task-Rhyming/perceptual_m.bmp
ds001486_sub-0001,ds001486,sub-001,ses-T1,task-Rhyming,,run-01,148.645,3.812,5,control,0.605,1,n/a,/BLUEbox.bmp
ds001486_sub-0001,ds001486,sub-001,ses-T1,task-Rhyming,,run-01,152.457,3.811,5,control,0.508,1,n/a,/BLUEbox.bmp
ds001486_sub-0001,ds001486,sub-001,ses-T1,task-Rhyming,,run-01,156.268,3.41,5,control,0.54,1,n/a,/BLUEbox.bmp
ds001486_sub-0001,ds001486,sub-001,ses-T1,task-Rhyming,,run-01,159.678,3.009,5,control,0.487,1,n/a,/BLUEbox.bmp
ds001486_sub-0001,ds001486,sub-001,ses-T1,task-Rhyming,,run-01,162.687,3.812,5,control,0.5,1,n/a,/BLUEbox.bmp
ds001486_sub-0001,ds001486,sub-001,ses-T1,task-Rhyming,,run-01,166.499,4.413,4,O-P-,1.491,0,port,warm
ds001486_sub-0001,ds001486,sub-001,ses-T1,task-Rhyming,,run-01,170.912,4.814,3,O-P+,2,1,june,noon
ds001486_sub-0001,ds001486,sub-001,ses-T1,task-Rhyming,,run-01,175.726,4.414,4,O-P-,1.308,0,wreath,leap
ds001486_sub-0001,ds001486,sub-001,ses-T1,task-Rhyming,,run-01,180.14,3.009,5,control,0.672,1,n/a,/BLUEbox.bmp
ds001486_sub-0001,ds001486,sub-001,ses-T1,task-Rhyming,,run-01,183.149,4.413,6,perceptual,1.216,1,task-Rhyming/perceptual_c.bmp,task-Rhyming/perceptual_d.bmp
ds001486_sub-0001,ds001486,sub-001,ses-T1,task-Rhyming,,run-01,187.562,4.413,2,O+P-,1.82,0,glove,stove
ds001486_sub-0001,ds001486,sub-001,ses-T1,task-Rhyming,,run-01,191.975,4.814,1,O+P+,1.417,1,numb,crumb
ds001486_sub-0001,ds001486,sub-001,ses-T1,task-Rhyming,,run-01,196.789,4.815,2,O+P-,2.655,0,stood,flood
ds001486_sub-0001,ds001486,sub-001,ses-T1,task-Rhyming,,run-01,201.604,4.413,6,perceptual,1.345,1,task-Rhyming/perceptual_i.bmp,task-Rhyming/perceptual_j.bmp
ds001486_sub-0001,ds001486,sub-001,ses-T1,task-Rhyming,,run-01,206.017,4.815,4,O-P-,1.377,0,smart,drought
ds001486_sub-0001,ds001486,sub-001,ses-T1,task-Rhyming,,run-01,210.832,4.413,3,O-P+,2.019,1,stir,blur
ds001486_sub-0001,ds001486,sub-001,ses-T1,task-Rhyming,,run-01,215.245,3.41,5,control,0.667,1,n/a,/BLUEbox.bmp
ds001486_sub-0001,ds001486,sub-001,ses-T1,task-Rhyming,,run-01,218.655,3.811,5,control,0.668,1,n/a,/BLUEbox.bmp
ds001486_sub-0001,ds001486,sub-001,ses-T1,task-Rhyming,,run-01,222.466,4.815,2,O+P-,1.981,0,pool,wool
ds001486_sub-0001,ds001486,sub-001,ses-T1,task-Rhyming,,run-01,227.281,3.009,5,control,NA,0,n/a,/BLUEbox.bmp
ds001486_sub-0001,ds001486,sub-001,ses-T1,task-Rhyming,,run-01,230.29,3.41,5,control,0.44,1,n/a,/BLUEbox.bmp
ds001486_sub-0001,ds001486,sub-001,ses-T1,task-Rhyming,,run-01,233.7,4.413,2,O+P-,1.025,0,fought,drought
ds001486_sub-0001,ds001486,sub-001,ses-T1,task-Rhyming,,run-01,238.113,4.012,3,O-P+,0.467,1,flight,spite
ds001486_sub-0001,ds001486,sub-001,ses-T1,task-Rhyming,,run-01,242.125,4.413,3,O-P+,1.406,1,scheme,cream
ds001486_sub-0001,ds001486,sub-001,ses-T1,task-Rhyming,,run-01,246.538,4.012,6,perceptual,0.751,0,task-Rhyming/perceptual_z.bmp,task-Rhyming/perceptual_g.bmp
ds001486_sub-0001,ds001486,sub-001,ses-T1,task-Rhyming,,run-01,250.55,4.815,4,O-P-,1.524,0,ghost,pose
ds001486_sub-0001,ds001486,sub-001,ses-T1,task-Rhyming,,run-01,255.365,3.41,5,control,0.722,1,n/a,/BLUEbox.bmp
ds001486_sub-0001,ds001486,sub-001,ses-T1,task-Rhyming,,run-01,258.775,4.012,4,O-P-,1.148,0,grace,fence
ds001486_sub-0001,ds001486,sub-001,ses-T1,task-Rhyming,,run-01,262.787,4.012,4,err,NA,0,dried,stood
ds001486_sub-0001,ds001486,sub-001,ses-T1,task-Rhyming,,run-01,266.799,4.012,4,O-P-,2.308,0,ford,rod
ds001486_sub-0001,ds001486,sub-001,ses-T1,task-Rhyming,,run-01,270.811,4.413,1,O+P+,2.234,1,strap,gap
ds001486_sub-0001,ds001486,sub-001,ses-T1,task-Rhyming,,run-01,275.224,4.815,6,perceptual,1.997,1,task-Rhyming/perceptual_e.bmp,task-Rhyming/perceptual_f.bmp
ds001486_sub-0001,ds001486,sub-001,ses-T1,task-Rhyming,,run-01,280.039,3.009,5,control,0.774,1,n/a,/BLUEbox.bmp
ds001486_sub-0001,ds001486,sub-001,ses-T1,task-Rhyming,,run-01,283.048,4.012,4,O-P-,1.709,0,gross,post
ds001486_sub-0001,ds001486,sub-001,ses-T1,task-Rhyming,,run-01,287.06,4.012,4,O-P-,1.343,0,fault,note
ds001486_sub-0001,ds001486,sub-001,ses-T1,task-Rhyming,,run-01,291.072,4.814,1,O+P+,1.661,1,bull,full
ds001486_sub-0001,ds001486,sub-001,ses-T1,task-Rhyming,,run-01,295.886,4.815,3,O-P+,1.6,1,chase,grace
ds001486_sub-0001,ds001486,sub-001,ses-T1,task-Rhyming,,run-01,300.701,4.012,3,O-P+,1.289,1,float,note
ds001486_sub-0001,ds001486,sub-001,ses-T1,task-Rhyming,,run-01,304.713,4.814,3,O-P+,1.242,1,bride,dried
ds001486_sub-0001,ds001486,sub-001,ses-T1,task-Rhyming,,run-01,309.527,4.814,4,O-P-,1.351,0,thief,plead
ds001486_sub-0001,ds001486,sub-001,ses-T1,task-Rhyming,,run-01,314.341,4.414,1,O+P+,1.529,1,bluff,puff
ds001486_sub-0001,ds001486,sub-001,ses-T1,task-Rhyming,,run-01,318.755,4.814,6,perceptual,0.934,1,task-Rhyming/perceptual_v.bmp,task-Rhyming/perceptual_w.bmp
ds001486_sub-0001,ds001486,sub-001,ses-T1,task-Rhyming,,run-01,323.569,4.814,1,O+P+,1.258,1,shove,glove
ds001486_sub-0001,ds001486,sub-001,ses-T1,task-Rhyming,,run-01,328.383,4.414,6,perceptual,1.326,0,task-Rhyming/perceptual_y.bmp,task-Rhyming/perceptual_o.bmp
ds001486_sub-0001,ds001486,sub-001,ses-T1,task-Rhyming,,run-01,332.797,4.814,2,O+P-,1.492,0,stamp,swamp
ds001486_sub-0001,ds001486,sub-001,ses-T1,task-Rhyming,,run-01,337.611,4.413,4,O-P-,1.275,0,stamp,tomb
ds001486_sub-0001,ds001486,sub-001,ses-T1,task-Rhyming,,run-01,342.024,3.003,5,control,0.669,1,n/a,/BLUEbox.bmp
ds001486_sub-0002,ds001486,sub-002,ses-T1,task-Rhyming,,run-01,0,4.012,2,O+P-,1.59,0,post,cost
ds001486_sub-0002,ds001486,sub-002,ses-T1,task-Rhyming,,run-01,4.012,3.009,5,control,0.575,1,n/a,/BLUEbox.bmp
ds001486_sub-0002,ds001486,sub-002,ses-T1,task-Rhyming,,run-01,7.021,4.414,6,perceptual,1.471,1,task-Rhyming/perceptual_o.bmp,task-Rhyming/perceptual_p.bmp
ds001486_sub-0002,ds001486,sub-002,ses-T1,task-Rhyming,,run-01,11.435,4.012,3,O-P+,1.437,0,rum,numb
ds001486_sub-0002,ds001486,sub-002,ses-T1,task-Rhyming,,run-01,15.447,3.811,5,control,NA,0,n/a,/BLUEbox.bmp
ds001486_sub-0002,ds001486,sub-002,ses-T1,task-Rhyming,,run-01,19.258,4.012,6,perceptual,1.817,0,task-Rhyming/perceptual_c.bmp,task-Rhyming/perceptual_u.bmp
ds001486_sub-0002,ds001486,sub-002,ses-T1,task-Rhyming,,run-01,23.27,4.012,1,O+P+,1.317,1,fought,sought
ds001486_sub-0002,ds001486,sub-002,ses-T1,task-Rhyming,,run-01,27.282,4.012,1,O+P+,1.456,1,scheme,theme
ds001486_sub-0002,ds001486,sub-002,ses-T1,task-Rhyming,,run-01,31.294,4.012,6,perceptual,1.212,1,task-Rhyming/perceptual_m.bmp,task-Rhyming/perceptual_n.bmp
ds001486_sub-0002,ds001486,sub-002,ses-T1,task-Rhyming,,run-01,35.306,4.413,1,O+P+,1.184,1,stool,fool
ds001486_sub-0002,ds001486,sub-002,ses-T1,task-Rhyming,,run-01,39.719,3.411,5,control,NA,0,n/a,/BLUEbox.bmp
ds001486_sub-0002,ds001486,sub-002,ses-T1,task-Rhyming,,run-01,43.13,4.413,1,O+P+,1.233,1,soak,oak
ds001486_sub-0002,ds001486,sub-002,ses-T1,task-Rhyming,,run-01,47.543,4.413,2,O+P-,1.351,0,threat,wheat
ds001486_sub-0002,ds001486,sub-002,ses-T1,task-Rhyming,,run-01,51.956,4.012,1,O+P+,1.314,1,thread,spread
ds001486_sub-0002,ds001486,sub-002,ses-T1,task-Rhyming,,run-01,55.968,4.414,3,O-P+,1.186,0,pile,trial
ds001486_sub-0002,ds001486,sub-002,ses-T1,task-Rhyming,,run-01,60.382,4.814,4,O-P-,1.388,0,swap,watch
ds001486_sub-0002,ds001486,sub-002,ses-T1,task-Rhyming,,run-01,65.196,3.811,5,control,NA,0,n/a,/BLUEbox.bmp
ds001486_sub-0002,ds001486,sub-002,ses-T1,task-Rhyming,,run-01,69.007,3.411,5,control,0.666,1,n/a,/BLUEbox.bmp
ds001486_sub-0002,ds001486,sub-002,ses-T1,task-Rhyming,,run-01,72.418,4.413,4,O-P-,1.509,0,tough,dull
ds001486_sub-0002,ds001486,sub-002,ses-T1,task-Rhyming,,run-01,76.831,4.814,6,perceptual,1.402,0,task-Rhyming/perceptual_w.bmp,task-Rhyming/perceptual_e.bmp
ds001486_sub-0002,ds001486,sub-002,ses-T1,task-Rhyming,,run-01,81.645,4.815,1,O+P+,2.004,1,sweep,creep
ds001486_sub-0002,ds001486,sub-002,ses-T1,task-Rhyming,,run-01,86.46,4.814,6,perceptual,1.278,0,task-Rhyming/perceptual_k.bmp,task-Rhyming/perceptual_t.bmp
ds001486_sub-0002,ds001486,sub-002,ses-T1,task-Rhyming,,run-01,91.274,3.411,5,control,0.438,1,n/a,/BLUEbox.bmp
ds001486_sub-0002,ds001486,sub-002,ses-T1,task-Rhyming,,run-01,94.685,3.41,3,O-P+,0.717,1,stroke,soak
ds001486_sub-0002,ds001486,sub-002,ses-T1,task-Rhyming,,run-01,98.095,4.413,4,O-P-,1.013,0,trial,fall
ds001486_sub-0002,ds001486,sub-002,ses-T1,task-Rhyming,,run-01,102.508,4.815,6,perceptual,1.288,1,task-Rhyming/perceptual_k.bmp,task-Rhyming/perceptual_l.bmp
ds001486_sub-0002,ds001486,sub-002,ses-T1,task-Rhyming,,run-01,107.323,3.009,5,control,NA,0,n/a,/BLUEbox.bmp
ds001486_sub-0002,ds001486,sub-002,ses-T1,task-Rhyming,,run-01,110.332,3.41,5,control,NA,0,n/a,/BLUEbox.bmp
ds001486_sub-0002,ds001486,sub-002,ses-T1,task-Rhyming,,run-01,113.742,3.41,5,control,0.554,1,n/a,/BLUEbox.bmp
ds001486_sub-0002,ds001486,sub-002,ses-T1,task-Rhyming,,run-01,117.152,3.41,5,control,0.554,1,n/a,/BLUEbox.bmp
ds001486_sub-0002,ds001486,sub-002,ses-T1,task-Rhyming,,run-01,120.562,4.012,1,O+P+,1.241,1,beef,reef
ds001486_sub-0002,ds001486,sub-002,ses-T1,task-Rhyming,,run-01,124.574,3.009,5,control,NA,0,n/a,/BLUEbox.bmp
ds001486_sub-0002,ds001486,sub-002,ses-T1,task-Rhyming,,run-01,127.583,4.815,2,O+P-,1.2,0,wart,smart
ds001486_sub-0002,ds001486,sub-002,ses-T1,task-Rhyming,,run-01,132.398,4.814,2,O+P-,1.034,0,dose,pose
ds001486_sub-0002,ds001486,sub-002,ses-T1,task-Rhyming,,run-01,137.212,3.41,5,control,NA,0,n/a,/BLUEbox.bmp
ds001486_sub-0002,ds001486,sub-002,ses-T1,task-Rhyming,,run-01,140.622,4.013,2,O+P-,1.241,0,touch,couch
ds001486_sub-0002,ds001486,sub-002,ses-T1,task-Rhyming,,run-01,144.635,4.012,6,perceptual,1.54,0,task-Rhyming/perceptual_v.bmp,task-Rhyming/perceptual_m.bmp
ds001486_sub-0002,ds001486,sub-002,ses-T1,task-Rhyming,,run-01,148.647,3.811,5,control,0.729,1,n/a,/BLUEbox.bmp
ds001486_sub-0002,ds001486,sub-002,ses-T1,task-Rhyming,,run-01,152.458,3.812,5,control,0.569,1,n/a,/BLUEbox.bmp
ds001486_sub-0002,ds001486,sub-002,ses-T1,task-Rhyming,,run-01,156.27,3.41,5,control,0.763,1,n/a,/BLUEbox.bmp
ds001486_sub-0002,ds001486,sub-002,ses-T1,task-Rhyming,,run-01,159.68,3.009,5,control,NA,0,n/a,/BLUEbox.bmp
ds001486_sub-0002,ds001486,sub-002,ses-T1,task-Rhyming,,run-01,162.689,3.811,5,control,NA,0,n/a,/BLUEbox.bmp
ds001486_sub-0002,ds001486,sub-002,ses-T1,task-Rhyming,,run-01,166.5,4.414,4,O-P-,1.25,0,port,warm
ds001486_sub-0002,ds001486,sub-002,ses-T1,task-Rhyming,,run-01,170.914,4.814,3,O-P+,1.382,1,june,noon
ds001486_sub-0002,ds001486,sub-002,ses-T1,task-Rhyming,,run-01,175.728,4.413,4,O-P-,1.238,0,wreath,leap
ds001486_sub-0002,ds001486,sub-002,ses-T1,task-Rhyming,,run-01,180.141,3.009,5,control,0.402,1,n/a,/BLUEbox.bmp
ds001486_sub-0002,ds001486,sub-002,ses-T1,task-Rhyming,,run-01,183.15,4.413,6,perceptual,1.401,1,task-Rhyming/perceptual_c.bmp,task-Rhyming/perceptual_d.bmp
ds001486_sub-0002,ds001486,sub-002,ses-T1,task-Rhyming,,run-01,187.563,4.414,2,O+P-,1.607,0,glove,stove
ds001486_sub-0002,ds001486,sub-002,ses-T1,task-Rhyming,,run-01,191.977,4.814,1,O+P+,1.028,1,numb,crumb
ds001486_sub-0002,ds001486,sub-002,ses-T1,task-Rhyming,,run-01,196.791,4.815,2,O+P-,1.012,0,stood,flood
ds001486_sub-0002,ds001486,sub-002,ses-T1,task-Rhyming,,run-01,201.606,4.413,6,perceptual,1.151,1,task-Rhyming/perceptual_i.bmp,task-Rhyming/perceptual_j.bmp
ds001486_sub-0002,ds001486,sub-002,ses-T1,task-Rhyming,,run-01,206.019,4.814,4,O-P-,1.39,0,smart,drought
ds001486_sub-0002,ds001486,sub-002,ses-T1,task-Rhyming,,run-01,210.833,4.414,3,O-P+,1.23,1,stir,blur
ds001486_sub-0002,ds001486,sub-002,ses-T1,task-Rhyming,,run-01,215.247,3.41,5,control,0.783,1,n/a,/BLUEbox.bmp
ds001486_sub-0002,ds001486,sub-002,ses-T1,task-Rhyming,,run-01,218.657,3.811,5,control,0.663,1,n/a,/BLUEbox.bmp
ds001486_sub-0002,ds001486,sub-002,ses-T1,task-Rhyming,,run-01,222.468,4.815,2,O+P-,1.103,0,pool,wool
ds001486_sub-0002,ds001486,sub-002,ses-T1,task-Rhyming,,run-01,227.283,3.009,5,control,0.727,1,n/a,/BLUEbox.bmp
ds001486_sub-0002,ds001486,sub-002,ses-T1,task-Rhyming,,run-01,230.292,3.41,5,control,0.704,1,n/a,/BLUEbox.bmp
ds001486_sub-0002,ds001486,sub-002,ses-T1,task-Rhyming,,run-01,233.702,4.413,2,O+P-,1.608,0,fought,drought
ds001486_sub-0002,ds001486,sub-002,ses-T1,task-Rhyming,,run-01,238.115,4.012,3,O-P+,1.326,1,flight,spite
ds001486_sub-0002,ds001486,sub-002,ses-T1,task-Rhyming,,run-01,242.127,4.414,3,O-P+,1.226,1,scheme,cream
ds001486_sub-0002,ds001486,sub-002,ses-T1,task-Rhyming,,run-01,246.541,4.012,6,perceptual,1.686,0,task-Rhyming/perceptual_z.bmp,task-Rhyming/perceptual_g.bmp
ds001486_sub-0002,ds001486,sub-002,ses-T1,task-Rhyming,,run-01,250.553,4.814,4,O-P-,1.279,0,ghost,pose
ds001486_sub-0002,ds001486,sub-002,ses-T1,task-Rhyming,,run-01,255.367,3.41,5,control,NA,0,n/a,/BLUEbox.bmp
ds001486_sub-0002,ds001486,sub-002,ses-T1,task-Rhyming,,run-01,258.777,4.012,4,O-P-,1.276,0,grace,fence
ds001486_sub-0002,ds001486,sub-002,ses-T1,task-Rhyming,,run-01,262.789,4.012,4,O-P-,1.281,0,dried,stood
ds001486_sub-0002,ds001486,sub-002,ses-T1,task-Rhyming,,run-01,266.801,4.012,4,O-P-,1.401,0,ford,rod
ds001486_sub-0002,ds001486,sub-002,ses-T1,task-Rhyming,,run-01,270.813,4.414,1,O+P+,1.335,1,strap,gap
ds001486_sub-0002,ds001486,sub-002,ses-T1,task-Rhyming,,run-01,275.227,4.814,6,perceptual,1.232,1,task-Rhyming/perceptual_e.bmp,task-Rhyming/perceptual_f.bmp
ds001486_sub-0002,ds001486,sub-002,ses-T1,task-Rhyming,,run-01,280.041,3.009,5,control,0.638,1,n/a,/BLUEbox.bmp
ds001486_sub-0002,ds001486,sub-002,ses-T1,task-Rhyming,,run-01,283.05,4.012,4,err,NA,0,gross,post
ds001486_sub-0002,ds001486,sub-002,ses-T1,task-Rhyming,,run-01,287.062,4.012,4,O-P-,1.18,0,fault,note
ds001486_sub-0002,ds001486,sub-002,ses-T1,task-Rhyming,,run-01,291.074,4.815,1,O+P+,1.187,1,bull,full
ds001486_sub-0002,ds001486,sub-002,ses-T1,task-Rhyming,,run-01,295.889,4.814,3,O-P+,1.547,1,chase,grace
ds001486_sub-0002,ds001486,sub-002,ses-T1,task-Rhyming,,run-01,300.703,4.012,3,O-P+,1.134,1,float,note
ds001486_sub-0002,ds001486,sub-002,ses-T1,task-Rhyming,,run-01,304.715,4.815,3,O-P+,1.363,1,bride,dried
ds001486_sub-0002,ds001486,sub-002,ses-T1,task-Rhyming,,run-01,309.53,4.814,4,O-P-,1.268,0,thief,plead
ds001486_sub-0002,ds001486,sub-002,ses-T1,task-Rhyming,,run-01,314.344,4.413,1,O+P+,0.992,1,bluff,puff
ds001486_sub-0002,ds001486,sub-002,ses-T1,task-Rhyming,,run-01,318.757,4.815,6,perceptual,2.256,1,task-Rhyming/perceptual_v.bmp,task-Rhyming/perceptual_w.bmp
ds001486_sub-0002,ds001486,sub-002,ses-T1,task-Rhyming,,run-01,323.572,4.814,1,O+P+,1.156,1,shove,glove
ds001486_sub-0002,ds001486,sub-002,ses-T1,task-Rhyming,,run-01,328.386,4.414,6,perceptual,1.261,0,task-Rhyming/perceptual_y.bmp,task-Rhyming/perceptual_o.bmp
ds001486_sub-0002,ds001486,sub-002,ses-T1,task-Rhyming,,run-01,332.8,4.814,2,O+P-,1.289,0,stamp,swamp
ds001486_sub-0002,ds001486,sub-002,ses-T1,task-Rhyming,,run-01,337.614,4.413,4,O-P-,2.888,0,stamp,tomb
ds001486_sub-0002,ds001486,sub-002,ses-T1,task-Rhyming,,run-01,342.027,3.003,5,control,0.61,1,n/a,/BLUEbox.bmp
ds001486_sub-0003,ds001486,sub-003,ses-T1,task-Rhyming,,run-01,0,4.012,2,O+P-,1.342,0,post,cost
ds001486_sub-0003,ds001486,sub-003,ses-T1,task-Rhyming,,run-01,4.012,3.009,5,control,0.596,1,n/a,/BLUEbox.bmp
ds001486_sub-0003,ds001486,sub-003,ses-T1,task-Rhyming,,run-01,7.021,4.413,6,perceptual,1.612,0,task-Rhyming/perceptual_o.bmp,task-Rhyming/perceptual_p.bmp
ds001486_sub-0003,ds001486,sub-003,ses-T1,task-Rhyming,,run-01,11.434,4.012,3,O-P+,1.504,1,rum,numb
ds001486_sub-0003,ds001486,sub-003,ses-T1,task-Rhyming,,run-01,15.446,3.811,5,control,0.652,1,n/a,/BLUEbox.bmp
ds001486_sub-0003,ds001486,sub-003,ses-T1,task-Rhyming,,run-01,19.257,4.012,6,perceptual,0.693,0,task-Rhyming/perceptual_c.bmp,task-Rhyming/perceptual_u.bmp
ds001486_sub-0003,ds001486,sub-003,ses-T1,task-Rhyming,,run-01,23.269,4.012,1,O+P+,1.063,1,fought,sought
ds001486_sub-0003,ds001486,sub-003,ses-T1,task-Rhyming,,run-01,27.281,4.012,1,O+P+,1.064,1,scheme,theme
ds001486_sub-0003,ds001486,sub-003,ses-T1,task-Rhyming,,run-01,31.293,4.012,6,perceptual,1.038,1,task-Rhyming/perceptual_m.bmp,task-Rhyming/perceptual_n.bmp
ds001486_sub-0003,ds001486,sub-003,ses-T1,task-Rhyming,,run-01,35.305,4.413,1,O+P+,1.429,1,stool,fool
ds001486_sub-0003,ds001486,sub-003,ses-T1,task-Rhyming,,run-01,39.718,3.41,5,control,0.601,1,n/a,/BLUEbox.bmp
ds001486_sub-0003,ds001486,sub-003,ses-T1,task-Rhyming,,run-01,43.128,4.414,1,O+P+,0.786,1,soak,oak
ds001486_sub-0003,ds001486,sub-003,ses-T1,task-Rhyming,,run-01,47.542,4.413,2,O+P-,0.999,0,threat,wheat
ds001486_sub-0003,ds001486,sub-003,ses-T1,task-Rhyming,,run-01,51.955,4.012,1,O+P+,1.215,1,thread,spread
ds001486_sub-0003,ds001486,sub-003,ses-T1,task-Rhyming,,run-01,55.967,4.413,3,O-P+,0.954,0,pile,trial
ds001486_sub-0003,ds001486,sub-003,ses-T1,task-Rhyming,,run-01,60.38,4.814,4,O-P-,1.307,0,swap,watch
ds001486_sub-0003,ds001486,sub-003,ses-T1,task-Rhyming,,run-01,65.194,3.812,5,control,0.484,1,n/a,/BLUEbox.bmp
ds001486_sub-0003,ds001486,sub-003,ses-T1,task-Rhyming,,run-01,69.006,3.41,5,control,0.524,1,n/a,/BLUEbox.bmp
ds001486_sub-0003,ds001486,sub-003,ses-T1,task-Rhyming,,run-01,72.416,4.413,4,O-P-,0.794,0,tough,dull
ds001486_sub-0003,ds001486,sub-003,ses-T1,task-Rhyming,,run-01,76.829,4.814,6,perceptual,1.134,0,task-Rhyming/perceptual_w.bmp,task-Rhyming/perceptual_e.bmp
ds001486_sub-0003,ds001486,sub-003,ses-T1,task-Rhyming,,run-01,81.643,4.815,1,O+P+,1.075,1,sweep,creep
ds001486_sub-0003,ds001486,sub-003,ses-T1,task-Rhyming,,run-01,86.458,4.814,6,perceptual,1.068,0,task-Rhyming/perceptual_k.bmp,task-Rhyming/perceptual_t.bmp
ds001486_sub-0003,ds001486,sub-003,ses-T1,task-Rhyming,,run-01,91.272,3.41,5,control,0.544,1,n/a,/BLUEbox.bmp
ds001486_sub-0003,ds001486,sub-003,ses-T1,task-Rhyming,,run-01,94.682,3.411,3,O-P+,0.487,1,stroke,soak
ds001486_sub-0003,ds001486,sub-003,ses-T1,task-Rhyming,,run-01,98.093,4.413,4,O-P-,1.201,0,trial,fall
ds001486_sub-0003,ds001486,sub-003,ses-T1,task-Rhyming,,run-01,102.506,4.814,6,perceptual,1.135,1,task-Rhyming/perceptual_k.bmp,task-Rhyming/perceptual_l.bmp
ds001486_sub-0003,ds001486,sub-003,ses-T1,task-Rhyming,,run-01,107.32,3.009,5,control,0.592,1,n/a,/BLUEbox.bmp
ds001486_sub-0003,ds001486,sub-003,ses-T1,task-Rhyming,,run-01,110.329,3.41,5,control,0.568,1,n/a,/BLUEbox.bmp
ds001486_sub-0003,ds001486,sub-003,ses-T1,task-Rhyming,,run-01,113.739,3.411,5,control,0.352,1,n/a,/BLUEbox.bmp
ds001486_sub-0003,ds001486,sub-003,ses-T1,task-Rhyming,,run-01,117.15,3.41,5,control,0.424,1,n/a,/BLUEbox.bmp
ds001486_sub-0003,ds001486,sub-003,ses-T1,task-Rhyming,,run-01,120.56,4.012,1,O+P+,1.082,1,beef,reef
ds001486_sub-0003,ds001486,sub-003,ses-T1,task-Rhyming,,run-01,124.572,3.009,5,control,0.415,1,n/a,/BLUEbox.bmp
ds001486_sub-0003,ds001486,sub-003,ses-T1,task-Rhyming,,run-01,127.581,4.814,2,O+P-,1.541,0,wart,smart
ds001486_sub-0003,ds001486,sub-003,ses-T1,task-Rhyming,,run-01,132.395,4.815,2,O+P-,1.131,0,dose,pose
ds001486_sub-0003,ds001486,sub-003,ses-T1,task-Rhyming,,run-01,137.21,3.41,5,control,0.416,1,n/a,/BLUEbox.bmp
ds001486_sub-0003,ds001486,sub-003,ses-T1,task-Rhyming,,run-01,140.62,4.012,2,O+P-,1.075,0,touch,couch
ds001486_sub-0003,ds001486,sub-003,ses-T1,task-Rhyming,,run-01,144.632,4.012,6,perceptual,1.159,0,task-Rhyming/perceptual_v.bmp,task-Rhyming/perceptual_m.bmp
ds001486_sub-0003,ds001486,sub-003,ses-T1,task-Rhyming,,run-01,148.644,3.811,5,control,0.493,1,n/a,/BLUEbox.bmp
ds001486_sub-0003,ds001486,sub-003,ses-T1,task-Rhyming,,run-01,152.455,3.811,5,control,0.435,1,n/a,/BLUEbox.bmp
ds001486_sub-0003,ds001486,sub-003,ses-T1,task-Rhyming,,run-01,156.266,3.411,5,control,0.405,1,n/a,/BLUEbox.bmp
ds001486_sub-0003,ds001486,sub-003,ses-T1,task-Rhyming,,run-01,159.677,3.009,5,control,0.602,1,n/a,/BLUEbox.bmp
ds001486_sub-0003,ds001486,sub-003,ses-T1,task-Rhyming,,run-01,162.686,3.811,5,control,0.451,1,n/a,/BLUEbox.bmp
ds001486_sub-0003,ds001486,sub-003,ses-T1,task-Rhyming,,run-01,166.497,4.413,4,O-P-,0.855,0,port,warm
ds001486_sub-0003,ds001486,sub-003,ses-T1,task-Rhyming,,run-01,170.91,4.815,3,O-P+,1.193,0,june,noon
ds001486_sub-0003,ds001486,sub-003,ses-T1,task-Rhyming,,run-01,175.725,4.413,4,O-P-,1.174,0,wreath,leap
ds001486_sub-0003,ds001486,sub-003,ses-T1,task-Rhyming,,run-01,180.138,3.009,5,control,0.601,0,n/a,/BLUEbox.bmp
ds001486_sub-0003,ds001486,sub-003,ses-T1,task-Rhyming,,run-01,183.147,4.413,6,perceptual,1.163,1,task-Rhyming/perceptual_c.bmp,task-Rhyming/perceptual_d.bmp
ds001486_sub-0003,ds001486,sub-003,ses-T1,task-Rhyming,,run-01,187.56,4.413,2,O+P-,1.215,0,glove,stove
ds001486_sub-0003,ds001486,sub-003,ses-T1,task-Rhyming,,run-01,191.973,4.814,1,O+P+,1.104,1,numb,crumb
ds001486_sub-0003,ds001486,sub-003,ses-T1,task-Rhyming,,run-01,196.787,4.815,2,O+P-,1.454,0,stood,flood
ds001486_sub-0003,ds001486,sub-003,ses-T1,task-Rhyming,,run-01,201.602,4.413,6,perceptual,1.143,1,task-Rhyming/perceptual_i.bmp,task-Rhyming/perceptual_j.bmp
ds001486_sub-0003,ds001486,sub-003,ses-T1,task-Rhyming,,run-01,206.015,4.814,4,O-P-,1.167,0,smart,drought
ds001486_sub-0003,ds001486,sub-003,ses-T1,task-Rhyming,,run-01,210.829,4.414,3,O-P+,1.128,0,stir,blur
ds001486_sub-0003,ds001486,sub-003,ses-T1,task-Rhyming,,run-01,215.243,3.41,5,control,0.609,1,n/a,/BLUEbox.bmp
ds001486_sub-0003,ds001486,sub-003,ses-T1,task-Rhyming,,run-01,218.653,3.811,5,control,0.494,1,n/a,/BLUEbox.bmp
ds001486_sub-0003,ds001486,sub-003,ses-T1,task-Rhyming,,run-01,222.464,4.815,2,O+P-,1.142,0,pool,wool
ds001486_sub-0003,ds001486,sub-003,ses-T1,task-Rhyming,,run-01,227.279,3.009,5,control,0.517,1,n/a,/BLUEbox.bmp
ds001486_sub-0003,ds001486,sub-003,ses-T1,task-Rhyming,,run-01,230.288,3.41,5,control,0.436,1,n/a,/BLUEbox.bmp
ds001486_sub-0003,ds001486,sub-003,ses-T1,task-Rhyming,,run-01,233.698,4.413,2,O+P-,1.193,0,fought,drought
ds001486_sub-0003,ds001486,sub-003,ses-T1,task-Rhyming,,run-01,238.111,4.012,3,O-P+,1.193,1,flight,spite
ds001486_sub-0003,ds001486,sub-003,ses-T1,task-Rhyming,,run-01,242.123,4.413,3,O-P+,1.498,0,scheme,cream
ds001486_sub-0003,ds001486,sub-003,ses-T1,task-Rhyming,,run-01,246.536,4.012,6,perceptual,1.138,0,task-Rhyming/perceptual_z.bmp,task-Rhyming/perceptual_g.bmp
ds001486_sub-0003,ds001486,sub-003,ses-T1,task-Rhyming,,run-01,250.548,4.814,4,O-P-,1.271,0,ghost,pose
ds001486_sub-0003,ds001486,sub-003,ses-T1,task-Rhyming,,run-01,255.362,3.411,5,control,0.528,1,n/a,/BLUEbox.bmp
ds001486_sub-0003,ds001486,sub-003,ses-T1,task-Rhyming,,run-01,258.773,4.012,4,O-P-,1.191,0,grace,fence
ds001486_sub-0003,ds001486,sub-003,ses-T1,task-Rhyming,,run-01,262.785,4.012,4,O-P-,1.351,0,dried,stood
ds001486_sub-0003,ds001486,sub-003,ses-T1,task-Rhyming,,run-01,266.797,4.012,4,O-P-,1.651,0,ford,rod
ds001486_sub-0003,ds001486,sub-003,ses-T1,task-Rhyming,,run-01,270.809,4.413,1,O+P+,1.647,1,strap,gap
ds001486_sub-0003,ds001486,sub-003,ses-T1,task-Rhyming,,run-01,275.222,4.814,6,perceptual,1.152,1,task-Rhyming/perceptual_e.bmp,task-Rhyming/perceptual_f.bmp
ds001486_sub-0003,ds001486,sub-003,ses-T1,task-Rhyming,,run-01,280.036,3.009,5,control,0.545,1,n/a,/BLUEbox.bmp
ds001486_sub-0003,ds001486,sub-003,ses-T1,task-Rhyming,,run-01,283.045,4.012,4,O-P-,1.292,0,gross,post
ds001486_sub-0003,ds001486,sub-003,ses-T1,task-Rhyming,,run-01,287.057,4.012,4,O-P-,1.18,0,fault,note
ds001486_sub-0003,ds001486,sub-003,ses-T1,task-Rhyming,,run-01,291.069,4.815,1,O+P+,0.93,1,bull,full
ds001486_sub-0003,ds001486,sub-003,ses-T1,task-Rhyming,,run-01,295.884,4.814,3,O-P+,1.328,1,chase,grace
ds001486_sub-0003,ds001486,sub-003,ses-T1,task-Rhyming,,run-01,300.698,4.012,3,O-P+,1.469,1,float,note
ds001486_sub-0003,ds001486,sub-003,ses-T1,task-Rhyming,,run-01,304.71,4.814,3,O-P+,1.114,1,bride,dried
ds001486_sub-0003,ds001486,sub-003,ses-T1,task-Rhyming,,run-01,309.524,4.815,4,O-P-,0.992,0,thief,plead
ds001486_sub-0003,ds001486,sub-003,ses-T1,task-Rhyming,,run-01,314.339,4.413,1,O+P+,1.152,1,bluff,puff
ds001486_sub-0003,ds001486,sub-003,ses-T1,task-Rhyming,,run-01,318.752,4.814,6,perceptual,1.149,1,task-Rhyming/perceptual_v.bmp,task-Rhyming/perceptual_w.bmp
ds001486_sub-0003,ds001486,sub-003,ses-T1,task-Rhyming,,run-01,323.566,4.815,1,O+P+,1.197,1,shove,glove
ds001486_sub-0003,ds001486,sub-003,ses-T1,task-Rhyming,,run-01,328.381,4.413,6,perceptual,1.197,0,task-Rhyming/perceptual_y.bmp,task-Rhyming/perceptual_o.bmp
ds001486_sub-0003,ds001486,sub-003,ses-T1,task-Rhyming,,run-01,332.794,4.814,2,O+P-,1.36,0,stamp,swamp
ds001486_sub-0003,ds001486,sub-003,ses-T1,task-Rhyming,,run-01,337.608,4.413,4,O-P-,1.159,0,stamp,tomb
ds001486_sub-0003,ds001486,sub-003,ses-T1,task-Rhyming,,run-01,342.021,3.003,5,control,0.588,1,n/a,/BLUEbox.bmp
ds001486_sub-0004,ds001486,sub-004,ses-T1,task-Rhyming,,run-01,0,3.998,2,O+P-,1.146,0,post,cost
ds001486_sub-0004,ds001486,sub-004,ses-T1,task-Rhyming,,run-01,3.998,2.999,5,control,0.736,1,n/a,/BLUEbox.bmp
ds001486_sub-0004,ds001486,sub-004,ses-T1,task-Rhyming,,run-01,6.997,4.398,6,perceptual,1.296,1,task-Rhyming/perceptual_o.bmp,task-Rhyming/perceptual_p.bmp
ds001486_sub-0004,ds001486,sub-004,ses-T1,task-Rhyming,,run-01,11.395,3.998,3,O-P+,1.166,1,rum,numb
ds001486_sub-0004,ds001486,sub-004,ses-T1,task-Rhyming,,run-01,15.393,3.798,5,control,0.945,1,n/a,/BLUEbox.bmp
ds001486_sub-0004,ds001486,sub-004,ses-T1,task-Rhyming,,run-01,19.191,3.998,6,perceptual,1.126,0,task-Rhyming/perceptual_c.bmp,task-Rhyming/perceptual_u.bmp
ds001486_sub-0004,ds001486,sub-004,ses-T1,task-Rhyming,,run-01,23.189,3.998,1,O+P+,1.43,1,fought,sought
ds001486_sub-0004,ds001486,sub-004,ses-T1,task-Rhyming,,run-01,27.187,3.999,1,O+P+,1.057,1,scheme,theme
ds001486_sub-0004,ds001486,sub-004,ses-T1,task-Rhyming,,run-01,31.186,3.998,6,perceptual,1.302,1,task-Rhyming/perceptual_m.bmp,task-Rhyming/perceptual_n.bmp
ds001486_sub-0004,ds001486,sub-004,ses-T1,task-Rhyming,,run-01,35.184,4.398,1,O+P+,1.208,1,stool,fool
ds001486_sub-0004,ds001486,sub-004,ses-T1,task-Rhyming,,run-01,39.582,3.398,5,control,0.913,1,n/a,/BLUEbox.bmp
ds001486_sub-0004,ds001486,sub-004,ses-T1,task-Rhyming,,run-01,42.98,4.398,1,O+P+,1.095,1,soak,oak
ds001486_sub-0004,ds001486,sub-004,ses-T1,task-Rhyming,,run-01,47.378,4.398,2,O+P-,1.606,1,threat,wheat
ds001486_sub-0004,ds001486,sub-004,ses-T1,task-Rhyming,,run-01,51.776,3.998,1,O+P+,0.832,1,thread,spread
ds001486_sub-0004,ds001486,sub-004,ses-T1,task-Rhyming,,run-01,55.774,4.398,3,O-P+,1.104,1,pile,trial
ds001486_sub-0004,ds001486,sub-004,ses-T1,task-Rhyming,,run-01,60.172,4.798,4,O-P-,0.925,1,swap,watch
ds001486_sub-0004,ds001486,sub-004,ses-T1,task-Rhyming,,run-01,64.97,3.798,5,control,0.792,1,n/a,/BLUEbox.bmp
ds001486_sub-0004,ds001486,sub-004,ses-T1,task-Rhyming,,run-01,68.768,3.398,5,control,0.62,1,n/a,/BLUEbox.bmp
ds001486_sub-0004,ds001486,sub-004,ses-T1,task-Rhyming,,run-01,72.166,4.398,4,O-P-,1.345,1,tough,dull
ds001486_sub-0004,ds001486,sub-004,ses-T1,task-Rhyming,,run-01,76.564,4.798,6,perceptual,1.287,1,task-Rhyming/perceptual_w.bmp,task-Rhyming/perceptual_e.bmp
ds001486_sub-0004,ds001486,sub-004,ses-T1,task-Rhyming,,run-01,81.362,4.798,1,O+P+,1.226,1,sweep,creep
ds001486_sub-0004,ds001486,sub-004,ses-T1,task-Rhyming,,run-01,86.16,4.798,6,perceptual,1.568,1,task-Rhyming/perceptual_k.bmp,task-Rhyming/perceptual_t.bmp
ds001486_sub-0004,ds001486,sub-004,ses-T1,task-Rhyming,,run-01,90.958,3.398,5,control,0.783,1,n/a,/BLUEbox.bmp
ds001486_sub-0004,ds001486,sub-004,ses-T1,task-Rhyming,,run-01,94.356,3.399,3,O-P+,1.609,1,stroke,soak
ds001486_sub-0004,ds001486,sub-004,ses-T1,task-Rhyming,,run-01,97.755,4.397,4,O-P-,1.626,0,trial,fall
ds001486_sub-0004,ds001486,sub-004,ses-T1,task-Rhyming,,run-01,102.152,4.798,6,perceptual,1.319,1,task-Rhyming/perceptual_k.bmp,task-Rhyming/perceptual_l.bmp
ds001486_sub-0004,ds001486,sub-004,ses-T1,task-Rhyming,,run-01,106.95,2.999,5,control,1.026,1,n/a,/BLUEbox.bmp
ds001486_sub-0004,ds001486,sub-004,ses-T1,task-Rhyming,,run-01,109.949,3.398,5,control,1.781,1,n/a,/BLUEbox.bmp
ds001486_sub-0004,ds001486,sub-004,ses-T1,task-Rhyming,,run-01,113.347,3.399,5,control,1.503,1,n/a,/BLUEbox.bmp
ds001486_sub-0004,ds001486,sub-004,ses-T1,task-Rhyming,,run-01,116.746,3.398,5,control,0.778,1,n/a,/BLUEbox.bmp
ds001486_sub-0004,ds001486,sub-004,ses-T1,task-Rhyming,,run-01,120.144,3.998,1,O+P+,1.494,1,beef,reef
ds001486_sub-0004,ds001486,sub-004,ses-T1,task-Rhyming,,run-01,124.142,2.999,5,control,1.752,1,n/a,/BLUEbox.bmp
ds001486_sub-0004,ds001486,sub-004,ses-T1,task-Rhyming,,run-01,127.141,4.798,2,O+P-,1.219,1,wart,smart
ds001486_sub-0004,ds001486,sub-004,ses-T1,task-Rhyming,,run-01,131.939,4.797,2,O+P-,0.997,0,dose,pose
ds001486_sub-0004,ds001486,sub-004,ses-T1,task-Rhyming,,run-01,136.736,3.399,5,control,1.024,1,n/a,/BLUEbox.bmp
ds001486_sub-0004,ds001486,sub-004,ses-T1,task-Rhyming,,run-01,140.135,3.998,2,O+P-,2.416,1,touch,couch
ds001486_sub-0004,ds001486,sub-004,ses-T1,task-Rhyming,,run-01,144.133,3.998,6,perceptual,1.235,1,task-Rhyming/perceptual_v.bmp,task-Rhyming/perceptual_m.bmp
ds001486_sub-0004,ds001486,sub-004,ses-T1,task-Rhyming,,run-01,148.131,3.798,5,control,0.532,1,n/a,/BLUEbox.bmp
ds001486_sub-0004,ds001486,sub-004,ses-T1,task-Rhyming,,run-01,151.929,3.798,5,control,1.267,1,n/a,/BLUEbox.bmp
ds001486_sub-0004,ds001486,sub-004,ses-T1,task-Rhyming,,run-01,155.727,3.399,5,control,0.622,1,n/a,/BLUEbox.bmp
ds001486_sub-0004,ds001486,sub-004,ses-T1,task-Rhyming,,run-01,159.126,2.998,5,control,0.553,1,n/a,/BLUEbox.bmp
ds001486_sub-0004,ds001486,sub-004,ses-T1,task-Rhyming,,run-01,162.124,3.799,5,control,0.52,1,n/a,/BLUEbox.bmp
ds001486_sub-0004,ds001486,sub-004,ses-T1,task-Rhyming,,run-01,165.923,4.398,4,O-P-,1.874,1,port,warm
ds001486_sub-0004,ds001486,sub-004,ses-T1,task-Rhyming,,run-01,170.321,4.797,3,O-P+,1.035,1,june,noon
ds001486_sub-0004,ds001486,sub-004,ses-T1,task-Rhyming,,run-01,175.118,4.398,4,O-P-,1.482,1,wreath,leap
ds001486_sub-0004,ds001486,sub-004,ses-T1,task-Rhyming,,run-01,179.516,2.999,5,control,0.997,1,n/a,/BLUEbox.bmp
ds001486_sub-0004,ds001486,sub-004,ses-T1,task-Rhyming,,run-01,182.515,4.398,6,perceptual,1.92,1,task-Rhyming/perceptual_c.bmp,task-Rhyming/perceptual_d.bmp
ds001486_sub-0004,ds001486,sub-004,ses-T1,task-Rhyming,,run-01,186.913,4.398,2,O+P-,1.558,1,glove,stove
ds001486_sub-0004,ds001486,sub-004,ses-T1,task-Rhyming,,run-01,191.311,4.798,1,O+P+,1.107,1,numb,crumb
ds001486_sub-0004,ds001486,sub-004,ses-T1,task-Rhyming,,run-01,196.109,4.797,2,O+P-,1.745,0,stood,flood
ds001486_sub-0004,ds001486,sub-004,ses-T1,task-Rhyming,,run-01,200.906,4.398,6,perceptual,1.27,1,task-Rhyming/perceptual_i.bmp,task-Rhyming/perceptual_j.bmp
ds001486_sub-0004,ds001486,sub-004,ses-T1,task-Rhyming,,run-01,205.304,4.798,4,O-P-,1,1,smart,drought
ds001486_sub-0004,ds001486,sub-004,ses-T1,task-Rhyming,,run-01,210.102,4.398,3,O-P+,1.105,0,stir,blur
ds001486_sub-0004,ds001486,sub-004,ses-T1,task-Rhyming,,run-01,214.5,3.398,5,control,1.104,1,n/a,/BLUEbox.bmp
ds001486_sub-0004,ds001486,sub-004,ses-T1,task-Rhyming,,run-01,217.898,3.799,5,control,0.588,1,n/a,/BLUEbox.bmp
ds001486_sub-0004,ds001486,sub-004,ses-T1,task-Rhyming,,run-01,221.697,4.797,2,O+P-,1.158,1,pool,wool
ds001486_sub-0004,ds001486,sub-004,ses-T1,task-Rhyming,,run-01,226.494,2.999,5,control,0.822,1,n/a,/BLUEbox.bmp
ds001486_sub-0004,ds001486,sub-004,ses-T1,task-Rhyming,,run-01,229.493,3.399,5,control,2.092,1,n/a,/BLUEbox.bmp
ds001486_sub-0004,ds001486,sub-004,ses-T1,task-Rhyming,,run-01,232.892,4.397,2,O+P-,1.836,1,fought,drought
ds001486_sub-0004,ds001486,sub-004,ses-T1,task-Rhyming,,run-01,237.289,3.999,3,O-P+,1.443,1,flight,spite
ds001486_sub-0004,ds001486,sub-004,ses-T1,task-Rhyming,,run-01,241.288,4.397,3,O-P+,1.286,1,scheme,cream
ds001486_sub-0004,ds001486,sub-004,ses-T1,task-Rhyming,,run-01,245.685,3.999,6,perceptual,0.913,0,task-Rhyming/perceptual_z.bmp,task-Rhyming/perceptual_g.bmp
ds001486_sub-0004,ds001486,sub-004,ses-T1,task-Rhyming,,run-01,249.684,4.797,4,O-P-,1.087,1,ghost,pose
ds001486_sub-0004,ds001486,sub-004,ses-T1,task-Rhyming,,run-01,254.481,3.399,5,control,0.759,1,n/a,/BLUEbox.bmp
ds001486_sub-0004,ds001486,sub-004,ses-T1,task-Rhyming,,run-01,257.88,3.998,4,O-P-,1.049,1,grace,fence
ds001486_sub-0004,ds001486,sub-004,ses-T1,task-Rhyming,,run-01,261.878,3.998,4,O-P-,1.022,1,dried,stood
ds001486_sub-0004,ds001486,sub-004,ses-T1,task-Rhyming,,run-01,265.876,3.998,4,O-P-,1.722,1,ford,rod
ds001486_sub-0004,ds001486,sub-004,ses-T1,task-Rhyming,,run-01,269.874,4.398,1,O+P+,1.743,1,strap,gap
ds001486_sub-0004,ds001486,sub-004,ses-T1,task-Rhyming,,run-01,274.272,4.798,6,perceptual,1.697,1,task-Rhyming/perceptual_e.bmp,task-Rhyming/perceptual_f.bmp
ds001486_sub-0004,ds001486,sub-004,ses-T1,task-Rhyming,,run-01,279.07,2.999,5,err,NA,0,n/a,/BLUEbox.bmp
ds001486_sub-0004,ds001486,sub-004,ses-T1,task-Rhyming,,run-01,282.069,3.998,4,O-P-,1.155,1,gross,post
ds001486_sub-0004,ds001486,sub-004,ses-T1,task-Rhyming,,run-01,286.067,3.998,4,O-P-,0.67,0,fault,note
ds001486_sub-0004,ds001486,sub-004,ses-T1,task-Rhyming,,run-01,290.065,4.798,1,O+P+,0.875,1,bull,full
ds001486_sub-0004,ds001486,sub-004,ses-T1,task-Rhyming,,run-01,294.863,4.797,3,O-P+,1.056,1,chase,grace
ds001486_sub-0004,ds001486,sub-004,ses-T1,task-Rhyming,,run-01,299.66,3.998,3,O-P+,1.083,1,float,note
ds001486_sub-0004,ds001486,sub-004,ses-T1,task-Rhyming,,run-01,303.658,4.798,3,O-P+,1.167,1,bride,dried
ds001486_sub-0004,ds001486,sub-004,ses-T1,task-Rhyming,,run-01,308.456,4.798,4,O-P-,1.219,1,thief,plead
ds001486_sub-0004,ds001486,sub-004,ses-T1,task-Rhyming,,run-01,313.254,4.398,1,O+P+,1.17,1,bluff,puff
ds001486_sub-0004,ds001486,sub-004,ses-T1,task-Rhyming,,run-01,317.652,4.798,6,perceptual,1.078,1,task-Rhyming/perceptual_v.bmp,task-Rhyming/perceptual_w.bmp
ds001486_sub-0004,ds001486,sub-004,ses-T1,task-Rhyming,,run-01,322.45,4.797,1,O+P+,1.077,1,shove,glove
ds001486_sub-0004,ds001486,sub-004,ses-T1,task-Rhyming,,run-01,327.247,4.398,6,perceptual,1.493,0,task-Rhyming/perceptual_y.bmp,task-Rhyming/perceptual_o.bmp
ds001486_sub-0004,ds001486,sub-004,ses-T1,task-Rhyming,,run-01,331.645,4.798,2,O+P-,1.37,1,stamp,swamp
ds001486_sub-0004,ds001486,sub-004,ses-T1,task-Rhyming,,run-01,336.443,4.398,4,O-P-,1.218,1,stamp,tomb
ds001486_sub-0004,ds001486,sub-004,ses-T1,task-Rhyming,,run-01,340.841,3,5,control,1.121,1,n/a,/BLUEbox.bmp
ds001486_sub-0005,ds001486,sub-005,ses-T1,task-Rhyming,,run-01,0,4.012,2,O+P-,1.713,1,post,cost
ds001486_sub-0005,ds001486,sub-005,ses-T1,task-Rhyming,,run-01,4.012,3.009,5,control,0.744,1,n/a,/BLUEbox.bmp
ds001486_sub-0005,ds001486,sub-005,ses-T1,task-Rhyming,,run-01,7.021,4.413,6,perceptual,1.868,1,task-Rhyming/perceptual_o.bmp,task-Rhyming/perceptual_p.bmp
ds001486_sub-0005,ds001486,sub-005,ses-T1,task-Rhyming,,run-01,11.434,4.013,3,O-P+,2.122,1,rum,numb
ds001486_sub-0005,ds001486,sub-005,ses-T1,task-Rhyming,,run-01,15.447,3.811,5,control,0.782,1,n/a,/BLUEbox.bmp
ds001486_sub-0005,ds001486,sub-005,ses-T1,task-Rhyming,,run-01,19.258,4.012,6,perceptual,1.732,1,task-Rhyming/perceptual_c.bmp,task-Rhyming/perceptual_u.bmp
ds001486_sub-0005,ds001486,sub-005,ses-T1,task-Rhyming,,run-01,23.27,4.012,1,O+P+,1.783,1,fought,sought
ds001486_sub-0005,ds001486,sub-005,ses-T1,task-Rhyming,,run-01,27.282,4.012,1,O+P+,1.307,1,scheme,theme
ds001486_sub-0005,ds001486,sub-005,ses-T1,task-Rhyming,,run-01,31.294,4.012,6,perceptual,1.858,1,task-Rhyming/perceptual_m.bmp,task-Rhyming/perceptual_n.bmp
ds001486_sub-0005,ds001486,sub-005,ses-T1,task-Rhyming,,run-01,35.306,4.413,1,O+P+,1.879,1,stool,fool
ds001486_sub-0005,ds001486,sub-005,ses-T1,task-Rhyming,,run-01,39.719,3.411,5,control,0.731,1,n/a,/BLUEbox.bmp
ds001486_sub-0005,ds001486,sub-005,ses-T1,task-Rhyming,,run-01,43.13,4.413,1,O+P+,1.543,1,soak,oak
ds001486_sub-0005,ds001486,sub-005,ses-T1,task-Rhyming,,run-01,47.543,4.413,2,O+P-,2.746,1,threat,wheat
ds001486_sub-0005,ds001486,sub-005,ses-T1,task-Rhyming,,run-01,51.956,4.012,1,O+P+,1.868,1,thread,spread
ds001486_sub-0005,ds001486,sub-005,ses-T1,task-Rhyming,,run-01,55.968,4.413,3,O-P+,1.63,1,pile,trial
ds001486_sub-0005,ds001486,sub-005,ses-T1,task-Rhyming,,run-01,60.381,4.815,4,O-P-,1.551,1,swap,watch
ds001486_sub-0005,ds001486,sub-005,ses-T1,task-Rhyming,,run-01,65.196,3.811,5,control,0.748,1,n/a,/BLUEbox.bmp
ds001486_sub-0005,ds001486,sub-005,ses-T1,task-Rhyming,,run-01,69.007,3.41,5,control,0.608,1,n/a,/BLUEbox.bmp
ds001486_sub-0005,ds001486,sub-005,ses-T1,task-Rhyming,,run-01,72.417,4.414,4,O-P-,1.362,1,tough,dull
ds001486_sub-0005,ds001486,sub-005,ses-T1,task-Rhyming,,run-01,76.831,4.814,6,perceptual,2.154,1,task-Rhyming/perceptual_w.bmp,task-Rhyming/perceptual_e.bmp
ds001486_sub-0005,ds001486,sub-005,ses-T1,task-Rhyming,,run-01,81.645,4.815,1,O+P+,1.621,1,sweep,creep
ds001486_sub-0005,ds001486,sub-005,ses-T1,task-Rhyming,,run-01,86.46,4.814,6,perceptual,1.644,1,task-Rhyming/perceptual_k.bmp,task-Rhyming/perceptual_t.bmp
ds001486_sub-0005,ds001486,sub-005,ses-T1,task-Rhyming,,run-01,91.274,3.41,5,control,0.759,1,n/a,/BLUEbox.bmp
ds001486_sub-0005,ds001486,sub-005,ses-T1,task-Rhyming,,run-01,94.684,3.41,3,O-P+,0.714,1,stroke,soak
ds001486_sub-0005,ds001486,sub-005,ses-T1,task-Rhyming,,run-01,98.094,4.414,4,O-P-,1.607,1,trial,fall
ds001486_sub-0005,ds001486,sub-005,ses-T1,task-Rhyming,,run-01,102.508,4.814,6,perceptual,1.901,1,task-Rhyming/perceptual_k.bmp,task-Rhyming/perceptual_l.bmp
ds001486_sub-0005,ds001486,sub-005,ses-T1,task-Rhyming,,run-01,107.322,3.009,5,control,NA,0,n/a,/BLUEbox.bmp
ds001486_sub-0005,ds001486,sub-005,ses-T1,task-Rhyming,,run-01,110.331,3.41,5,control,0.749,1,n/a,/BLUEbox.bmp
ds001486_sub-0005,ds001486,sub-005,ses-T1,task-Rhyming,,run-01,113.741,3.411,5,control,NA,0,n/a,/BLUEbox.bmp
ds001486_sub-0005,ds001486,sub-005,ses-T1,task-Rhyming,,run-01,117.152,3.41,5,control,0.593,1,n/a,/BLUEbox.bmp
ds001486_sub-0005,ds001486,sub-005,ses-T1,task-Rhyming,,run-01,120.562,4.012,1,O+P+,1.388,1,beef,reef
ds001486_sub-0005,ds001486,sub-005,ses-T1,task-Rhyming,,run-01,124.574,3.009,5,control,0.504,1,n/a,/BLUEbox.bmp
ds001486_sub-0005,ds001486,sub-005,ses-T1,task-Rhyming,,run-01,127.583,4.814,2,O+P-,1.3,1,wart,smart
ds001486_sub-0005,ds001486,sub-005,ses-T1,task-Rhyming,,run-01,132.397,4.815,2,O+P-,1.306,1,dose,pose
ds001486_sub-0005,ds001486,sub-005,ses-T1,task-Rhyming,,run-01,137.212,3.41,5,control,0.686,1,n/a,/BLUEbox.bmp
ds001486_sub-0005,ds001486,sub-005,ses-T1,task-Rhyming,,run-01,140.622,4.012,2,err,NA,0,touch,couch
ds001486_sub-0005,ds001486,sub-005,ses-T1,task-Rhyming,,run-01,144.634,4.012,6,perceptual,2.203,1,task-Rhyming/perceptual_v.bmp,task-Rhyming/perceptual_m.bmp
ds001486_sub-0005,ds001486,sub-005,ses-T1,task-Rhyming,,run-01,148.646,3.812,5,control,0.635,1,n/a,/BLUEbox.bmp
ds001486_sub-0005,ds001486,sub-005,ses-T1,task-Rhyming,,run-01,152.458,3.811,5,control,NA,0,n/a,/BLUEbox.bmp
ds001486_sub-0005,ds001486,sub-005,ses-T1,task-Rhyming,,run-01,156.269,3.41,5,control,NA,0,n/a,/BLUEbox.bmp
ds001486_sub-0005,ds001486,sub-005,ses-T1,task-Rhyming,,run-01,159.679,3.009,5,control,0.411,1,n/a,/BLUEbox.bmp
ds001486_sub-0005,ds001486,sub-005,ses-T1,task-Rhyming,,run-01,162.688,3.812,5,control,0.505,1,n/a,/BLUEbox.bmp
ds001486_sub-0005,ds001486,sub-005,ses-T1,task-Rhyming,,run-01,166.5,4.413,4,O-P-,1.191,1,port,warm
ds001486_sub-0005,ds001486,sub-005,ses-T1,task-Rhyming,,run-01,170.913,4.814,3,O-P+,1.663,1,june,noon
ds001486_sub-0005,ds001486,sub-005,ses-T1,task-Rhyming,,run-01,175.727,4.414,4,O-P-,1.598,1,wreath,leap
ds001486_sub-0005,ds001486,sub-005,ses-T1,task-Rhyming,,run-01,180.141,3.009,5,control,0.51,1,n/a,/BLUEbox.bmp
ds001486_sub-0005,ds001486,sub-005,ses-T1,task-Rhyming,,run-01,183.15,4.413,6,perceptual,1.515,1,task-Rhyming/perceptual_c.bmp,task-Rhyming/perceptual_d.bmp
ds001486_sub-0005,ds001486,sub-005,ses-T1,task-Rhyming,,run-01,187.563,4.413,2,O+P-,1.908,1,glove,stove
ds001486_sub-0005,ds001486,sub-005,ses-T1,task-Rhyming,,run-01,191.976,4.815,1,O+P+,1.228,1,numb,crumb
ds001486_sub-0005,ds001486,sub-005,ses-T1,task-Rhyming,,run-01,196.791,4.814,2,O+P-,2.043,1,stood,flood
ds001486_sub-0005,ds001486,sub-005,ses-T1,task-Rhyming,,run-01,201.605,4.413,6,perceptual,1.309,1,task-Rhyming/perceptual_i.bmp,task-Rhyming/perceptual_j.bmp
ds001486_sub-0005,ds001486,sub-005,ses-T1,task-Rhyming,,run-01,206.018,4.815,4,O-P-,1.765,1,smart,drought
ds001486_sub-0005,ds001486,sub-005,ses-T1,task-Rhyming,,run-01,210.833,4.413,3,O-P+,1.531,1,stir,blur
ds001486_sub-0005,ds001486,sub-005,ses-T1,task-Rhyming,,run-01,215.246,3.41,5,control,0.702,1,n/a,/BLUEbox.bmp
ds001486_sub-0005,ds001486,sub-005,ses-T1,task-Rhyming,,run-01,218.656,3.812,5,control,NA,0,n/a,/BLUEbox.bmp
ds001486_sub-0005,ds001486,sub-005,ses-T1,task-Rhyming,,run-01,222.468,4.814,2,O+P-,2.035,1,pool,wool
ds001486_sub-0005,ds001486,sub-005,ses-T1,task-Rhyming,,run-01,227.282,3.009,5,control,0.624,1,n/a,/BLUEbox.bmp
ds001486_sub-0005,ds001486,sub-005,ses-T1,task-Rhyming,,run-01,230.291,3.41,5,control,0.606,1,n/a,/BLUEbox.bmp
ds001486_sub-0005,ds001486,sub-005,ses-T1,task-Rhyming,,run-01,233.701,4.413,2,O+P-,2.224,0,fought,drought
ds001486_sub-0005,ds001486,sub-005,ses-T1,task-Rhyming,,run-01,238.114,4.013,3,O-P+,1.293,1,flight,spite
ds001486_sub-0005,ds001486,sub-005,ses-T1,task-Rhyming,,run-01,242.127,4.413,3,O-P+,1.589,1,scheme,cream
ds001486_sub-0005,ds001486,sub-005,ses-T1,task-Rhyming,,run-01,246.54,4.012,6,perceptual,1.14,1,task-Rhyming/perceptual_z.bmp,task-Rhyming/perceptual_g.bmp
ds001486_sub-0005,ds001486,sub-005,ses-T1,task-Rhyming,,run-01,250.552,4.814,4,O-P-,1.571,1,ghost,pose
ds001486_sub-0005,ds001486,sub-005,ses-T1,task-Rhyming,,run-01,255.366,3.41,5,control,0.779,1,n/a,/BLUEbox.bmp
ds001486_sub-0005,ds001486,sub-005,ses-T1,task-Rhyming,,run-01,258.776,4.013,4,O-P-,1.188,1,grace,fence
ds001486_sub-0005,ds001486,sub-005,ses-T1,task-Rhyming,,run-01,262.789,4.012,4,O-P-,1.27,1,dried,stood
ds001486_sub-0005,ds001486,sub-005,ses-T1,task-Rhyming,,run-01,266.801,4.012,4,O-P-,1.35,1,ford,rod
ds001486_sub-0005,ds001486,sub-005,ses-T1,task-Rhyming,,run-01,270.813,4.413,1,O+P+,2.973,0,strap,gap
ds001486_sub-0005,ds001486,sub-005,ses-T1,task-Rhyming,,run-01,275.226,4.814,6,perceptual,1.578,1,task-Rhyming/perceptual_e.bmp,task-Rhyming/perceptual_f.bmp
ds001486_sub-0005,ds001486,sub-005,ses-T1,task-Rhyming,,run-01,280.04,3.009,5,control,0.619,1,n/a,/BLUEbox.bmp
ds001486_sub-0005,ds001486,sub-005,ses-T1,task-Rhyming,,run-01,283.049,4.012,4,O-P-,1.335,1,gross,post
ds001486_sub-0005,ds001486,sub-005,ses-T1,task-Rhyming,,run-01,287.061,4.012,4,O-P-,1.859,1,fault,note
ds001486_sub-0005,ds001486,sub-005,ses-T1,task-Rhyming,,run-01,291.073,4.815,1,O+P+,2.372,1,bull,full
ds001486_sub-0005,ds001486,sub-005,ses-T1,task-Rhyming,,run-01,295.888,4.814,3,O-P+,1.537,1,chase,grace
ds001486_sub-0005,ds001486,sub-005,ses-T1,task-Rhyming,,run-01,300.702,4.012,3,O-P+,1.253,1,float,note
ds001486_sub-0005,ds001486,sub-005,ses-T1,task-Rhyming,,run-01,304.714,4.815,3,O-P+,1.688,1,bride,dried
ds001486_sub-0005,ds001486,sub-005,ses-T1,task-Rhyming,,run-01,309.529,4.814,4,O-P-,1.295,1,thief,plead
ds001486_sub-0005,ds001486,sub-005,ses-T1,task-Rhyming,,run-01,314.343,4.413,1,O+P+,1.784,1,bluff,puff
ds001486_sub-0005,ds001486,sub-005,ses-T1,task-Rhyming,,run-01,318.756,4.815,6,perceptual,1.579,1,task-Rhyming/perceptual_v.bmp,task-Rhyming/perceptual_w.bmp
ds001486_sub-0005,ds001486,sub-005,ses-T1,task-Rhyming,,run-01,323.571,4.814,1,O+P+,1.373,1,shove,glove
ds001486_sub-0005,ds001486,sub-005,ses-T1,task-Rhyming,,run-01,328.385,4.414,6,perceptual,1.239,0,task-Rhyming/perceptual_y.bmp,task-Rhyming/perceptual_o.bmp
ds001486_sub-0005,ds001486,sub-005,ses-T1,task-Rhyming,,run-01,332.799,4.814,2,O+P-,1.236,1,stamp,swamp
ds001486_sub-0005,ds001486,sub-005,ses-T1,task-Rhyming,,run-01,337.613,4.413,4,O-P-,1.153,1,stamp,tomb
ds001486_sub-0005,ds001486,sub-005,ses-T1,task-Rhyming,,run-01,342.026,3.003,5,control,0.556,1,n/a,/BLUEbox.bmp
ds001486_sub-0006,ds001486,sub-006,ses-T1,task-Rhyming,,run-01,0,4.013,2,O+P-,1.481,0,post,cost
ds001486_sub-0006,ds001486,sub-006,ses-T1,task-Rhyming,,run-01,4.013,3.009,5,control,0.559,1,n/a,/BLUEbox.bmp
ds001486_sub-0006,ds001486,sub-006,ses-T1,task-Rhyming,,run-01,7.022,4.414,6,perceptual,2.415,1,task-Rhyming/perceptual_o.bmp,task-Rhyming/perceptual_p.bmp
ds001486_sub-0006,ds001486,sub-006,ses-T1,task-Rhyming,,run-01,11.436,4.012,3,O-P+,1.291,1,rum,numb
ds001486_sub-0006,ds001486,sub-006,ses-T1,task-Rhyming,,run-01,15.448,3.812,5,control,0.687,1,n/a,/BLUEbox.bmp
ds001486_sub-0006,ds001486,sub-006,ses-T1,task-Rhyming,,run-01,19.26,4.013,6,perceptual,1.639,1,task-Rhyming/perceptual_c.bmp,task-Rhyming/perceptual_u.bmp
ds001486_sub-0006,ds001486,sub-006,ses-T1,task-Rhyming,,run-01,23.273,4.012,1,O+P+,1.282,1,fought,sought
ds001486_sub-0006,ds001486,sub-006,ses-T1,task-Rhyming,,run-01,27.285,4.013,1,O+P+,1.502,1,scheme,theme
ds001486_sub-0006,ds001486,sub-006,ses-T1,task-Rhyming,,run-01,31.298,4.012,6,perceptual,1.603,0,task-Rhyming/perceptual_m.bmp,task-Rhyming/perceptual_n.bmp
ds001486_sub-0006,ds001486,sub-006,ses-T1,task-Rhyming,,run-01,35.31,4.414,1,O+P+,1.384,1,stool,fool
ds001486_sub-0006,ds001486,sub-006,ses-T1,task-Rhyming,,run-01,39.724,3.411,5,control,0.639,1,n/a,/BLUEbox.bmp
ds001486_sub-0006,ds001486,sub-006,ses-T1,task-Rhyming,,run-01,43.135,4.413,1,O+P+,1.265,1,soak,oak
ds001486_sub-0006,ds001486,sub-006,ses-T1,task-Rhyming,,run-01,47.548,4.414,2,O+P-,1.608,0,threat,wheat
ds001486_sub-0006,ds001486,sub-006,ses-T1,task-Rhyming,,run-01,51.962,4.013,1,O+P+,1.605,1,thread,spread
ds001486_sub-0006,ds001486,sub-006,ses-T1,task-Rhyming,,run-01,55.975,4.413,3,O-P+,1.663,0,pile,trial
ds001486_sub-0006,ds001486,sub-006,ses-T1,task-Rhyming,,run-01,60.388,4.815,4,O-P-,1.494,1,swap,watch
ds001486_sub-0006,ds001486,sub-006,ses-T1,task-Rhyming,,run-01,65.203,3.812,5,control,0.725,1,n/a,/BLUEbox.bmp
ds001486_sub-0006,ds001486,sub-006,ses-T1,task-Rhyming,,run-01,69.015,3.411,5,control,0.571,1,n/a,/BLUEbox.bmp
ds001486_sub-0006,ds001486,sub-006,ses-T1,task-Rhyming,,run-01,72.426,4.414,4,O-P-,1.406,1,tough,dull
ds001486_sub-0006,ds001486,sub-006,ses-T1,task-Rhyming,,run-01,76.84,4.815,6,perceptual,1.536,1,task-Rhyming/perceptual_w.bmp,task-Rhyming/perceptual_e.bmp
ds001486_sub-0006,ds001486,sub-006,ses-T1,task-Rhyming,,run-01,81.655,4.815,1,O+P+,1.301,1,sweep,creep
ds001486_sub-0006,ds001486,sub-006,ses-T1,task-Rhyming,,run-01,86.47,4.815,6,perceptual,1.505,0,task-Rhyming/perceptual_k.bmp,task-Rhyming/perceptual_t.bmp
ds001486_sub-0006,ds001486,sub-006,ses-T1,task-Rhyming,,run-01,91.285,3.41,5,control,0.703,1,n/a,/BLUEbox.bmp
ds001486_sub-0006,ds001486,sub-006,ses-T1,task-Rhyming,,run-01,94.695,3.411,3,O-P+,0.638,1,stroke,soak
ds001486_sub-0006,ds001486,sub-006,ses-T1,task-Rhyming,,run-01,98.106,4.414,4,O-P-,1.249,1,trial,fall
ds001486_sub-0006,ds001486,sub-006,ses-T1,task-Rhyming,,run-01,102.52,4.815,6,perceptual,1.316,1,task-Rhyming/perceptual_k.bmp,task-Rhyming/perceptual_l.bmp
ds001486_sub-0006,ds001486,sub-006,ses-T1,task-Rhyming,,run-01,107.335,3.009,5,control,0.522,1,n/a,/BLUEbox.bmp
ds001486_sub-0006,ds001486,sub-006,ses-T1,task-Rhyming,,run-01,110.344,3.411,5,control,0.394,1,n/a,/BLUEbox.bmp
ds001486_sub-0006,ds001486,sub-006,ses-T1,task-Rhyming,,run-01,113.755,3.41,5,control,0.698,1,n/a,/BLUEbox.bmp
ds001486_sub-0006,ds001486,sub-006,ses-T1,task-Rhyming,,run-01,117.165,3.411,5,control,0.563,1,n/a,/BLUEbox.bmp
ds001486_sub-0006,ds001486,sub-006,ses-T1,task-Rhyming,,run-01,120.576,4.012,1,O+P+,1.22,1,beef,reef
ds001486_sub-0006,ds001486,sub-006,ses-T1,task-Rhyming,,run-01,124.588,3.01,5,control,0.548,1,n/a,/BLUEbox.bmp
ds001486_sub-0006,ds001486,sub-006,ses-T1,task-Rhyming,,run-01,127.598,4.815,2,O+P-,2.087,1,wart,smart
ds001486_sub-0006,ds001486,sub-006,ses-T1,task-Rhyming,,run-01,132.413,4.815,2,O+P-,1.389,0,dose,pose
ds001486_sub-0006,ds001486,sub-006,ses-T1,task-Rhyming,,run-01,137.228,3.41,5,control,0.807,1,n/a,/BLUEbox.bmp
ds001486_sub-0006,ds001486,sub-006,ses-T1,task-Rhyming,,run-01,140.638,4.013,2,err,NA,0,touch,couch
ds001486_sub-0006,ds001486,sub-006,ses-T1,task-Rhyming,,run-01,144.651,4.013,6,perceptual,1.434,1,task-Rhyming/perceptual_v.bmp,task-Rhyming/perceptual_m.bmp
ds001486_sub-0006,ds001486,sub-006,ses-T1,task-Rhyming,,run-01,148.664,3.811,5,control,0.613,0,n/a,/BLUEbox.bmp
ds001486_sub-0006,ds001486,sub-006,ses-T1,task-Rhyming,,run-01,152.475,3.812,5,control,0.716,1,n/a,/BLUEbox.bmp
ds001486_sub-0006,ds001486,sub-006,ses-T1,task-Rhyming,,run-01,156.287,3.411,5,control,0.74,1,n/a,/BLUEbox.bmp
ds001486_sub-0006,ds001486,sub-006,ses-T1,task-Rhyming,,run-01,159.698,3.009,5,control,0.516,1,n/a,/BLUEbox.bmp
ds001486_sub-0006,ds001486,sub-006,ses-T1,task-Rhyming,,run-01,162.707,3.812,5,control,0.465,1,n/a,/BLUEbox.bmp
ds001486_sub-0006,ds001486,sub-006,ses-T1,task-Rhyming,,run-01,166.519,4.414,4,O-P-,2.288,1,port,warm
ds001486_sub-0006,ds001486,sub-006,ses-T1,task-Rhyming,,run-01,170.933,4.815,3,O-P+,2.411,1,june,noon
ds001486_sub-0006,ds001486,sub-006,ses-T1,task-Rhyming,,run-01,175.748,4.414,4,O-P-,1.768,1,wreath,leap
ds001486_sub-0006,ds001486,sub-006,ses-T1,task-Rhyming,,run-01,180.162,3.009,5,control,0.84,1,n/a,/BLUEbox.bmp
ds001486_sub-0006,ds001486,sub-006,ses-T1,task-Rhyming,,run-01,183.171,4.414,6,perceptual,1.395,1,task-Rhyming/perceptual_c.bmp,task-Rhyming/perceptual_d.bmp
ds001486_sub-0006,ds001486,sub-006,ses-T1,task-Rhyming,,run-01,187.585,4.414,2,O+P-,2.043,1,glove,stove
ds001486_sub-0006,ds001486,sub-006,ses-T1,task-Rhyming,,run-01,191.999,4.815,1,O+P+,1.351,1,numb,crumb
ds001486_sub-0006,ds001486,sub-006,ses-T1,task-Rhyming,,run-01,196.814,4.815,2,O+P-,1.655,1,stood,flood
ds001486_sub-0006,ds001486,sub-006,ses-T1,task-Rhyming,,run-01,201.629,4.413,6,perceptual,1.844,0,task-Rhyming/perceptual_i.bmp,task-Rhyming/perceptual_j.bmp
ds001486_sub-0006,ds001486,sub-006,ses-T1,task-Rhyming,,run-01,206.042,4.815,4,O-P-,1.615,1,smart,drought
ds001486_sub-0006,ds001486,sub-006,ses-T1,task-Rhyming,,run-01,210.857,4.414,3,O-P+,1.483,1,stir,blur
ds001486_sub-0006,ds001486,sub-006,ses-T1,task-Rhyming,,run-01,215.271,3.411,5,control,0.798,1,n/a,/BLUEbox.bmp
ds001486_sub-0006,ds001486,sub-006,ses-T1,task-Rhyming,,run-01,218.682,3.812,5,control,0.531,1,n/a,/BLUEbox.bmp
ds001486_sub-0006,ds001486,sub-006,ses-T1,task-Rhyming,,run-01,222.494,4.815,2,O+P-,1.358,0,pool,wool
ds001486_sub-0006,ds001486,sub-006,ses-T1,task-Rhyming,,run-01,227.309,3.009,5,control,0.709,1,n/a,/BLUEbox.bmp
ds001486_sub-0006,ds001486,sub-006,ses-T1,task-Rhyming,,run-01,230.318,3.411,5,control,0.589,1,n/a,/BLUEbox.bmp
ds001486_sub-0006,ds001486,sub-006,ses-T1,task-Rhyming,,run-01,233.729,4.413,2,O+P-,1.085,0,fought,drought
ds001486_sub-0006,ds001486,sub-006,ses-T1,task-Rhyming,,run-01,238.142,4.013,3,O-P+,1.408,0,flight,spite
ds001486_sub-0006,ds001486,sub-006,ses-T1,task-Rhyming,,run-01,242.155,4.414,3,O-P+,1.211,1,scheme,cream
ds001486_sub-0006,ds001486,sub-006,ses-T1,task-Rhyming,,run-01,246.569,4.012,6,perceptual,1.364,1,task-Rhyming/perceptual_z.bmp,task-Rhyming/perceptual_g.bmp
ds001486_sub-0006,ds001486,sub-006,ses-T1,task-Rhyming,,run-01,250.581,4.815,4,O-P-,2.413,1,ghost,pose
ds001486_sub-0006,ds001486,sub-006,ses-T1,task-Rhyming,,run-01,255.396,3.411,5,control,0.58,1,n/a,/BLUEbox.bmp
ds001486_sub-0006,ds001486,sub-006,ses-T1,task-Rhyming,,run-01,258.807,4.012,4,O-P-,1.205,1,grace,fence
ds001486_sub-0006,ds001486,sub-006,ses-T1,task-Rhyming,,run-01,262.819,4.013,4,O-P-,1.723,1,dried,stood
ds001486_sub-0006,ds001486,sub-006,ses-T1,task-Rhyming,,run-01,266.832,4.012,4,O-P-,1.5,1,ford,rod
ds001486_sub-0006,ds001486,sub-006,ses-T1,task-Rhyming,,run-01,270.844,4.414,1,O+P+,1.106,1,strap,gap
ds001486_sub-0006,ds001486,sub-006,ses-T1,task-Rhyming,,run-01,275.258,4.815,6,perceptual,1.711,1,task-Rhyming/perceptual_e.bmp,task-Rhyming/perceptual_f.bmp
ds001486_sub-0006,ds001486,sub-006,ses-T1,task-Rhyming,,run-01,280.073,3.01,5,control,0.731,1,n/a,/BLUEbox.bmp
ds001486_sub-0006,ds001486,sub-006,ses-T1,task-Rhyming,,run-01,283.083,4.012,4,O-P-,1.708,0,gross,post
ds001486_sub-0006,ds001486,sub-006,ses-T1,task-Rhyming,,run-01,287.095,4.013,4,O-P-,1.443,0,fault,note
ds001486_sub-0006,ds001486,sub-006,ses-T1,task-Rhyming,,run-01,291.108,4.815,1,O+P+,1.186,1,bull,full
ds001486_sub-0006,ds001486,sub-006,ses-T1,task-Rhyming,,run-01,295.923,4.815,3,O-P+,2.088,1,chase,grace
ds001486_sub-0006,ds001486,sub-006,ses-T1,task-Rhyming,,run-01,300.738,4.012,3,O-P+,1.609,1,float,note
ds001486_sub-0006,ds001486,sub-006,ses-T1,task-Rhyming,,run-01,304.75,4.815,3,O-P+,1.647,0,bride,dried
ds001486_sub-0006,ds001486,sub-006,ses-T1,task-Rhyming,,run-01,309.565,4.815,4,O-P-,2.006,1,thief,plead
ds001486_sub-0006,ds001486,sub-006,ses-T1,task-Rhyming,,run-01,314.38,4.414,1,O+P+,1.403,1,bluff,puff
ds001486_sub-0006,ds001486,sub-006,ses-T1,task-Rhyming,,run-01,318.794,4.815,6,perceptual,1.179,1,task-Rhyming/perceptual_v.bmp,task-Rhyming/perceptual_w.bmp
ds001486_sub-0006,ds001486,sub-006,ses-T1,task-Rhyming,,run-01,323.609,4.815,1,O+P+,1.463,1,shove,glove
ds001486_sub-0006,ds001486,sub-006,ses-T1,task-Rhyming,,run-01,328.424,4.414,6,perceptual,1.39,1,task-Rhyming/perceptual_y.bmp,task-Rhyming/perceptual_o.bmp
ds001486_sub-0006,ds001486,sub-006,ses-T1,task-Rhyming,,run-01,332.838,4.815,2,O+P-,1.478,0,stamp,swamp
ds001486_sub-0006,ds001486,sub-006,ses-T1,task-Rhyming,,run-01,337.653,4.413,4,O-P-,1.519,1,stamp,tomb
ds001486_sub-0006,ds001486,sub-006,ses-T1,task-Rhyming,,run-01,342.066,3.003,5,control,0.741,1,n/a,/BLUEbox.bmp
ds001486_sub-0007,ds001486,sub-007,ses-T1,task-Rhyming,,run-01,0,4.012,2,O+P-,1.263,0,post,cost
ds001486_sub-0007,ds001486,sub-007,ses-T1,task-Rhyming,,run-01,4.011999999999993,2.223,5,control,0.789,1,n/a,/BLUEbox.bmp
ds001486_sub-0007,ds001486,sub-007,ses-T1,task-Rhyming,,run-01,6.234999999999992,4.414,6,perceptual,1.958,0,task-Rhyming/perceptual_o.bmp,task-Rhyming/perceptual_p.bmp
ds001486_sub-0007,ds001486,sub-007,ses-T1,task-Rhyming,,run-01,10.648999999999994,4.012,3,O-P+,1.734,1,rum,numb
ds001486_sub-0007,ds001486,sub-007,ses-T1,task-Rhyming,,run-01,14.660999999999994,3.009,5,control,0.933,1,n/a,/BLUEbox.bmp
ds001486_sub-0007,ds001486,sub-007,ses-T1,task-Rhyming,,run-01,17.669999999999995,4.012,6,perceptual,1.774,1,task-Rhyming/perceptual_c.bmp,task-Rhyming/perceptual_u.bmp
ds001486_sub-0007,ds001486,sub-007,ses-T1,task-Rhyming,,run-01,21.681999999999995,4.012,1,O+P+,1.777,1,fought,sought
ds001486_sub-0007,ds001486,sub-007,ses-T1,task-Rhyming,,run-01,25.694,4.012,1,O+P+,1.554,1,scheme,theme
ds001486_sub-0007,ds001486,sub-007,ses-T1,task-Rhyming,,run-01,29.706,4.012,6,perceptual,1.857,1,task-Rhyming/perceptual_m.bmp,task-Rhyming/perceptual_n.bmp
ds001486_sub-0007,ds001486,sub-007,ses-T1,task-Rhyming,,run-01,33.718,4.413,1,O+P+,1.343,1,stool,fool
ds001486_sub-0007,ds001486,sub-007,ses-T1,task-Rhyming,,run-01,38.13099999999999,2.624,5,control,0.739,1,n/a,/BLUEbox.bmp
ds001486_sub-0007,ds001486,sub-007,ses-T1,task-Rhyming,,run-01,40.755,4.413,1,O+P+,1.23,1,soak,oak
ds001486_sub-0007,ds001486,sub-007,ses-T1,task-Rhyming,,run-01,45.168,4.414,2,O+P-,1.418,1,threat,wheat
ds001486_sub-0007,ds001486,sub-007,ses-T1,task-Rhyming,,run-01,49.582,4.012,1,O+P+,1.245,1,thread,spread
ds001486_sub-0007,ds001486,sub-007,ses-T1,task-Rhyming,,run-01,53.594,4.413,3,O-P+,1.626,1,pile,trial
ds001486_sub-0007,ds001486,sub-007,ses-T1,task-Rhyming,,run-01,58.007,4.814,4,O-P-,1.218,1,swap,watch
ds001486_sub-0007,ds001486,sub-007,ses-T1,task-Rhyming,,run-01,62.82099999999999,3.009,5,control,0.729,1,n/a,/BLUEbox.bmp
ds001486_sub-0007,ds001486,sub-007,ses-T1,task-Rhyming,,run-01,65.83000000000001,2.608,5,control,0.239,1,n/a,/BLUEbox.bmp
ds001486_sub-0007,ds001486,sub-007,ses-T1,task-Rhyming,,run-01,68.43800000000002,4.413,4,O-P-,1.298,1,tough,dull
ds001486_sub-0007,ds001486,sub-007,ses-T1,task-Rhyming,,run-01,72.851,4.815,6,perceptual,1.48,1,task-Rhyming/perceptual_w.bmp,task-Rhyming/perceptual_e.bmp
ds001486_sub-0007,ds001486,sub-007,ses-T1,task-Rhyming,,run-01,77.666,4.814,1,O+P+,1.304,1,sweep,creep
ds001486_sub-0007,ds001486,sub-007,ses-T1,task-Rhyming,,run-01,82.47999999999999,4.814,6,perceptual,1.331,1,task-Rhyming/perceptual_k.bmp,task-Rhyming/perceptual_t.bmp
ds001486_sub-0007,ds001486,sub-007,ses-T1,task-Rhyming,,run-01,87.29400000000001,2.608,5,control,0.895,1,n/a,/BLUEbox.bmp
ds001486_sub-0007,ds001486,sub-007,ses-T1,task-Rhyming,,run-01,89.90200000000002,2.608,3,err,NA,0,stroke,soak
ds001486_sub-0007,ds001486,sub-007,ses-T1,task-Rhyming,,run-01,92.51,4.413,4,O-P-,1.263,1,trial,fall
ds001486_sub-0007,ds001486,sub-007,ses-T1,task-Rhyming,,run-01,96.923,4.814,6,perceptual,2.602,1,task-Rhyming/perceptual_k.bmp,task-Rhyming/perceptual_l.bmp
ds001486_sub-0007,ds001486,sub-007,ses-T1,task-Rhyming,,run-01,101.737,2.207,5,control,0.822,1,n/a,/BLUEbox.bmp
ds001486_sub-0007,ds001486,sub-007,ses-T1,task-Rhyming,,run-01,103.94400000000002,2.608,5,control,1.489,1,n/a,/BLUEbox.bmp
ds001486_sub-0007,ds001486,sub-007,ses-T1,task-Rhyming,,run-01,106.552,2.608,5,control,0.234,1,n/a,/BLUEbox.bmp
ds001486_sub-0007,ds001486,sub-007,ses-T1,task-Rhyming,,run-01,109.16,2.625,5,control,1.184,1,n/a,/BLUEbox.bmp
ds001486_sub-0007,ds001486,sub-007,ses-T1,task-Rhyming,,run-01,111.785,4.011,1,O+P+,2.265,1,beef,reef
ds001486_sub-0007,ds001486,sub-007,ses-T1,task-Rhyming,,run-01,115.796,2.207,5,control,0.878,1,n/a,/BLUEbox.bmp
ds001486_sub-0007,ds001486,sub-007,ses-T1,task-Rhyming,,run-01,118.003,4.814,2,O+P-,1.438,1,wart,smart
ds001486_sub-0007,ds001486,sub-007,ses-T1,task-Rhyming,,run-01,122.817,4.814,2,O+P-,1.174,0,dose,pose
ds001486_sub-0007,ds001486,sub-007,ses-T1,task-Rhyming,,run-01,127.631,2.625,5,control,0.663,1,n/a,/BLUEbox.bmp
ds001486_sub-0007,ds001486,sub-007,ses-T1,task-Rhyming,,run-01,130.256,4.012,2,O+P-,1.902,1,touch,couch
ds001486_sub-0007,ds001486,sub-007,ses-T1,task-Rhyming,,run-01,134.268,4.012,6,perceptual,1.549,1,task-Rhyming/perceptual_v.bmp,task-Rhyming/perceptual_m.bmp
ds001486_sub-0007,ds001486,sub-007,ses-T1,task-Rhyming,,run-01,138.28,3.009,5,control,1.095,1,n/a,/BLUEbox.bmp
ds001486_sub-0007,ds001486,sub-007,ses-T1,task-Rhyming,,run-01,141.28900000000002,3.009,5,control,1.007,1,n/a,/BLUEbox.bmp
ds001486_sub-0007,ds001486,sub-007,ses-T1,task-Rhyming,,run-01,144.298,2.608,5,control,2.428,1,n/a,/BLUEbox.bmp
ds001486_sub-0007,ds001486,sub-007,ses-T1,task-Rhyming,,run-01,146.906,2.206,5,err,NA,0,n/a,/BLUEbox.bmp
ds001486_sub-0007,ds001486,sub-007,ses-T1,task-Rhyming,,run-01,149.112,3.009,5,control,0.163,1,n/a,/BLUEbox.bmp
ds001486_sub-0007,ds001486,sub-007,ses-T1,task-Rhyming,,run-01,152.121,4.414,4,O-P-,1.353,1,port,warm
ds001486_sub-0007,ds001486,sub-007,ses-T1,task-Rhyming,,run-01,156.535,4.814,3,O-P+,1.847,1,june,noon
ds001486_sub-0007,ds001486,sub-007,ses-T1,task-Rhyming,,run-01,161.34900000000002,4.413,4,O-P-,1.161,1,wreath,leap
ds001486_sub-0007,ds001486,sub-007,ses-T1,task-Rhyming,,run-01,165.762,2.207,5,control,1.179,1,n/a,/BLUEbox.bmp
ds001486_sub-0007,ds001486,sub-007,ses-T1,task-Rhyming,,run-01,167.969,4.413,6,perceptual,3.033,1,task-Rhyming/perceptual_c.bmp,task-Rhyming/perceptual_d.bmp
ds001486_sub-0007,ds001486,sub-007,ses-T1,task-Rhyming,,run-01,172.382,4.413,2,O+P-,1.326,1,glove,stove
ds001486_sub-0007,ds001486,sub-007,ses-T1,task-Rhyming,,run-01,176.79500000000002,4.814,1,O+P+,1.351,1,numb,crumb
ds001486_sub-0007,ds001486,sub-007,ses-T1,task-Rhyming,,run-01,181.609,4.815,2,O+P-,1.551,1,stood,flood
ds001486_sub-0007,ds001486,sub-007,ses-T1,task-Rhyming,,run-01,186.424,4.413,6,perceptual,2.895,1,task-Rhyming/perceptual_i.bmp,task-Rhyming/perceptual_j.bmp
ds001486_sub-0007,ds001486,sub-007,ses-T1,task-Rhyming,,run-01,190.837,4.814,4,O-P-,1.221,1,smart,drought
ds001486_sub-0007,ds001486,sub-007,ses-T1,task-Rhyming,,run-01,195.651,4.414,3,O-P+,1.348,1,stir,blur
ds001486_sub-0007,ds001486,sub-007,ses-T1,task-Rhyming,,run-01,200.06500000000003,2.607,5,control,0.852,1,n/a,/BLUEbox.bmp
ds001486_sub-0007,ds001486,sub-007,ses-T1,task-Rhyming,,run-01,202.672,3.009,5,control,0.14,1,n/a,/BLUEbox.bmp
ds001486_sub-0007,ds001486,sub-007,ses-T1,task-Rhyming,,run-01,205.681,4.815,2,O+P-,1.407,1,pool,wool
ds001486_sub-0007,ds001486,sub-007,ses-T1,task-Rhyming,,run-01,210.496,2.206,5,control,0.845,1,n/a,/BLUEbox.bmp
ds001486_sub-0007,ds001486,sub-007,ses-T1,task-Rhyming,,run-01,212.70200000000003,2.608,5,control,1.372,1,n/a,/BLUEbox.bmp
ds001486_sub-0007,ds001486,sub-007,ses-T1,task-Rhyming,,run-01,215.31000000000003,4.413,2,O+P-,1.29,1,fought,drought
ds001486_sub-0007,ds001486,sub-007,ses-T1,task-Rhyming,,run-01,219.723,4.012,3,O-P+,1.213,1,flight,spite
ds001486_sub-0007,ds001486,sub-007,ses-T1,task-Rhyming,,run-01,223.735,4.414,3,O-P+,1.218,1,scheme,cream
ds001486_sub-0007,ds001486,sub-007,ses-T1,task-Rhyming,,run-01,228.14900000000003,4.011,6,perceptual,1.472,1,task-Rhyming/perceptual_z.bmp,task-Rhyming/perceptual_g.bmp
ds001486_sub-0007,ds001486,sub-007,ses-T1,task-Rhyming,,run-01,232.16,4.815,4,O-P-,1.157,1,ghost,pose
ds001486_sub-0007,ds001486,sub-007,ses-T1,task-Rhyming,,run-01,236.975,2.608,5,control,0.194,0,n/a,/BLUEbox.bmp
ds001486_sub-0007,ds001486,sub-007,ses-T1,task-Rhyming,,run-01,239.583,4.012,4,O-P-,1.168,1,grace,fence
ds001486_sub-0007,ds001486,sub-007,ses-T1,task-Rhyming,,run-01,243.595,4.012,4,O-P-,1.224,1,dried,stood
ds001486_sub-0007,ds001486,sub-007,ses-T1,task-Rhyming,,run-01,247.607,4.012,4,O-P-,1.744,1,ford,rod
ds001486_sub-0007,ds001486,sub-007,ses-T1,task-Rhyming,,run-01,251.619,4.413,1,O+P+,1.197,1,strap,gap
ds001486_sub-0007,ds001486,sub-007,ses-T1,task-Rhyming,,run-01,256.032,4.814,6,perceptual,2.207,1,task-Rhyming/perceptual_e.bmp,task-Rhyming/perceptual_f.bmp
ds001486_sub-0007,ds001486,sub-007,ses-T1,task-Rhyming,,run-01,260.846,2.207,5,control,1.296,1,n/a,/BLUEbox.bmp
ds001486_sub-0007,ds001486,sub-007,ses-T1,task-Rhyming,,run-01,263.053,4.012,4,O-P-,2.013,1,gross,post
ds001486_sub-0007,ds001486,sub-007,ses-T1,task-Rhyming,,run-01,267.065,4.012,4,O-P-,1.243,1,fault,note
ds001486_sub-0007,ds001486,sub-007,ses-T1,task-Rhyming,,run-01,271.077,4.814,1,O+P+,1.184,1,bull,full
ds001486_sub-0007,ds001486,sub-007,ses-T1,task-Rhyming,,run-01,275.891,4.814,3,O-P+,1.179,1,chase,grace
ds001486_sub-0007,ds001486,sub-007,ses-T1,task-Rhyming,,run-01,280.705,4.012,3,O-P+,1.18,1,float,note
ds001486_sub-0007,ds001486,sub-007,ses-T1,task-Rhyming,,run-01,284.717,4.815,3,O-P+,1.199,1,bride,dried
ds001486_sub-0007,ds001486,sub-007,ses-T1,task-Rhyming,,run-01,289.532,4.814,4,O-P-,1.147,1,thief,plead
ds001486_sub-0007,ds001486,sub-007,ses-T1,task-Rhyming,,run-01,294.346,4.413,1,O+P+,1.161,1,bluff,puff
ds001486_sub-0007,ds001486,sub-007,ses-T1,task-Rhyming,,run-01,298.759,4.815,6,perceptual,1.445,1,task-Rhyming/perceptual_v.bmp,task-Rhyming/perceptual_w.bmp
ds001486_sub-0007,ds001486,sub-007,ses-T1,task-Rhyming,,run-01,303.574,4.814,1,O+P+,1.378,1,shove,glove
ds001486_sub-0007,ds001486,sub-007,ses-T1,task-Rhyming,,run-01,308.388,4.413,6,perceptual,1.854,0,task-Rhyming/perceptual_y.bmp,task-Rhyming/perceptual_o.bmp
ds001486_sub-0007,ds001486,sub-007,ses-T1,task-Rhyming,,run-01,312.801,4.815,2,O+P-,1.247,1,stamp,swamp
ds001486_sub-0007,ds001486,sub-007,ses-T1,task-Rhyming,,run-01,317.616,4.413,4,O-P-,1.363,1,stamp,tomb
ds001486_sub-0007,ds001486,sub-007,ses-T1,task-Rhyming,,run-01,322.029,NA,5,control,0.645,1,n/a,/BLUEbox.bmp
ds001486_sub-0008,ds001486,sub-008,ses-T1,task-Rhyming,,run-01,0,3.999,2,O+P-,1.39,1,post,cost
ds001486_sub-0008,ds001486,sub-008,ses-T1,task-Rhyming,,run-01,3.999,2.999,5,control,0.674,1,n/a,/BLUEbox.bmp
ds001486_sub-0008,ds001486,sub-008,ses-T1,task-Rhyming,,run-01,6.998,4.398,6,perceptual,1.4,0,task-Rhyming/perceptual_o.bmp,task-Rhyming/perceptual_p.bmp
ds001486_sub-0008,ds001486,sub-008,ses-T1,task-Rhyming,,run-01,11.396,3.998,3,O-P+,0.793,1,rum,numb
ds001486_sub-0008,ds001486,sub-008,ses-T1,task-Rhyming,,run-01,15.394,3.799,5,control,0.689,1,n/a,/BLUEbox.bmp
ds001486_sub-0008,ds001486,sub-008,ses-T1,task-Rhyming,,run-01,19.193,3.998,6,perceptual,1.106,1,task-Rhyming/perceptual_c.bmp,task-Rhyming/perceptual_u.bmp
ds001486_sub-0008,ds001486,sub-008,ses-T1,task-Rhyming,,run-01,23.191,3.999,1,O+P+,0.685,1,fought,sought
ds001486_sub-0008,ds001486,sub-008,ses-T1,task-Rhyming,,run-01,27.19,3.998,1,O+P+,0.742,1,scheme,theme
ds001486_sub-0008,ds001486,sub-008,ses-T1,task-Rhyming,,run-01,31.188,3.999,6,perceptual,0.991,0,task-Rhyming/perceptual_m.bmp,task-Rhyming/perceptual_n.bmp
ds001486_sub-0008,ds001486,sub-008,ses-T1,task-Rhyming,,run-01,35.187,4.398,1,O+P+,0.718,1,stool,fool
ds001486_sub-0008,ds001486,sub-008,ses-T1,task-Rhyming,,run-01,39.585,3.399,5,control,0.542,1,n/a,/BLUEbox.bmp
ds001486_sub-0008,ds001486,sub-008,ses-T1,task-Rhyming,,run-01,42.984,4.398,1,O+P+,0.789,1,soak,oak
ds001486_sub-0008,ds001486,sub-008,ses-T1,task-Rhyming,,run-01,47.382,4.398,2,O+P-,0.993,1,threat,wheat
ds001486_sub-0008,ds001486,sub-008,ses-T1,task-Rhyming,,run-01,51.78,3.999,1,O+P+,0.844,1,thread,spread
ds001486_sub-0008,ds001486,sub-008,ses-T1,task-Rhyming,,run-01,55.779,4.398,3,O-P+,0.871,1,pile,trial
ds001486_sub-0008,ds001486,sub-008,ses-T1,task-Rhyming,,run-01,60.177,4.798,4,O-P-,0.725,1,swap,watch
ds001486_sub-0008,ds001486,sub-008,ses-T1,task-Rhyming,,run-01,64.975,3.799,5,control,0.604,1,n/a,/BLUEbox.bmp
ds001486_sub-0008,ds001486,sub-008,ses-T1,task-Rhyming,,run-01,68.774,3.399,5,control,0.512,1,n/a,/BLUEbox.bmp
ds001486_sub-0008,ds001486,sub-008,ses-T1,task-Rhyming,,run-01,72.173,4.398,4,O-P-,0.822,1,tough,dull
ds001486_sub-0008,ds001486,sub-008,ses-T1,task-Rhyming,,run-01,76.571,4.798,6,perceptual,0.853,1,task-Rhyming/perceptual_w.bmp,task-Rhyming/perceptual_e.bmp
ds001486_sub-0008,ds001486,sub-008,ses-T1,task-Rhyming,,run-01,81.369,4.798,1,O+P+,0.732,1,sweep,creep
ds001486_sub-0008,ds001486,sub-008,ses-T1,task-Rhyming,,run-01,86.167,4.798,6,perceptual,1.148,1,task-Rhyming/perceptual_k.bmp,task-Rhyming/perceptual_t.bmp
ds001486_sub-0008,ds001486,sub-008,ses-T1,task-Rhyming,,run-01,90.965,3.399,5,control,0.546,1,n/a,/BLUEbox.bmp
ds001486_sub-0008,ds001486,sub-008,ses-T1,task-Rhyming,,run-01,94.364,3.399,3,O-P+,0.524,1,stroke,soak
ds001486_sub-0008,ds001486,sub-008,ses-T1,task-Rhyming,,run-01,97.763,4.398,4,O-P-,0.817,1,trial,fall
ds001486_sub-0008,ds001486,sub-008,ses-T1,task-Rhyming,,run-01,102.161,4.798,6,perceptual,1.009,1,task-Rhyming/perceptual_k.bmp,task-Rhyming/perceptual_l.bmp
ds001486_sub-0008,ds001486,sub-008,ses-T1,task-Rhyming,,run-01,106.959,2.999,5,control,0.516,1,n/a,/BLUEbox.bmp
ds001486_sub-0008,ds001486,sub-008,ses-T1,task-Rhyming,,run-01,109.958,3.399,5,control,0.485,1,n/a,/BLUEbox.bmp
ds001486_sub-0008,ds001486,sub-008,ses-T1,task-Rhyming,,run-01,113.357,3.399,5,control,0.459,1,n/a,/BLUEbox.bmp
ds001486_sub-0008,ds001486,sub-008,ses-T1,task-Rhyming,,run-01,116.756,3.398,5,control,0.428,1,n/a,/BLUEbox.bmp
ds001486_sub-0008,ds001486,sub-008,ses-T1,task-Rhyming,,run-01,120.154,3.999,1,O+P+,0.673,1,beef,reef
ds001486_sub-0008,ds001486,sub-008,ses-T1,task-Rhyming,,run-01,124.153,2.999,5,control,0.424,1,n/a,/BLUEbox.bmp
ds001486_sub-0008,ds001486,sub-008,ses-T1,task-Rhyming,,run-01,127.152,4.798,2,O+P-,1.096,1,wart,smart
ds001486_sub-0008,ds001486,sub-008,ses-T1,task-Rhyming,,run-01,131.95,4.798,2,O+P-,1.041,0,dose,pose
ds001486_sub-0008,ds001486,sub-008,ses-T1,task-Rhyming,,run-01,136.748,3.398,5,control,0.449,1,n/a,/BLUEbox.bmp
ds001486_sub-0008,ds001486,sub-008,ses-T1,task-Rhyming,,run-01,140.146,3.999,2,O+P-,0.992,1,touch,couch
ds001486_sub-0008,ds001486,sub-008,ses-T1,task-Rhyming,,run-01,144.145,3.998,6,perceptual,0.787,1,task-Rhyming/perceptual_v.bmp,task-Rhyming/perceptual_m.bmp
ds001486_sub-0008,ds001486,sub-008,ses-T1,task-Rhyming,,run-01,148.143,3.799,5,control,0.733,1,n/a,/BLUEbox.bmp
ds001486_sub-0008,ds001486,sub-008,ses-T1,task-Rhyming,,run-01,151.942,3.799,5,control,0.46,1,n/a,/BLUEbox.bmp
ds001486_sub-0008,ds001486,sub-008,ses-T1,task-Rhyming,,run-01,155.741,3.398,5,control,0.451,1,n/a,/BLUEbox.bmp
ds001486_sub-0008,ds001486,sub-008,ses-T1,task-Rhyming,,run-01,159.139,2.999,5,control,0.47,1,n/a,/BLUEbox.bmp
ds001486_sub-0008,ds001486,sub-008,ses-T1,task-Rhyming,,run-01,162.138,3.799,5,control,0.526,1,n/a,/BLUEbox.bmp
ds001486_sub-0008,ds001486,sub-008,ses-T1,task-Rhyming,,run-01,165.937,4.398,4,O-P-,0.733,1,port,warm
ds001486_sub-0008,ds001486,sub-008,ses-T1,task-Rhyming,,run-01,170.335,4.798,3,O-P+,0.936,1,june,noon
ds001486_sub-0008,ds001486,sub-008,ses-T1,task-Rhyming,,run-01,175.133,4.398,4,O-P-,1.214,1,wreath,leap
ds001486_sub-0008,ds001486,sub-008,ses-T1,task-Rhyming,,run-01,179.531,2.999,5,control,0.539,1,n/a,/BLUEbox.bmp
ds001486_sub-0008,ds001486,sub-008,ses-T1,task-Rhyming,,run-01,182.53,4.399,6,perceptual,0.692,0,task-Rhyming/perceptual_c.bmp,task-Rhyming/perceptual_d.bmp
ds001486_sub-0008,ds001486,sub-008,ses-T1,task-Rhyming,,run-01,186.929,4.398,2,O+P-,1.043,1,glove,stove
ds001486_sub-0008,ds001486,sub-008,ses-T1,task-Rhyming,,run-01,191.327,4.798,1,O+P+,0.766,1,numb,crumb
ds001486_sub-0008,ds001486,sub-008,ses-T1,task-Rhyming,,run-01,196.125,4.798,2,O+P-,1.082,1,stood,flood
ds001486_sub-0008,ds001486,sub-008,ses-T1,task-Rhyming,,run-01,200.923,4.398,6,perceptual,0.856,1,task-Rhyming/perceptual_i.bmp,task-Rhyming/perceptual_j.bmp
ds001486_sub-0008,ds001486,sub-008,ses-T1,task-Rhyming,,run-01,205.321,4.799,4,O-P-,1.016,1,smart,drought
ds001486_sub-0008,ds001486,sub-008,ses-T1,task-Rhyming,,run-01,210.12,4.398,3,O-P+,1.135,1,stir,blur
ds001486_sub-0008,ds001486,sub-008,ses-T1,task-Rhyming,,run-01,214.518,3.399,5,control,0.611,1,n/a,/BLUEbox.bmp
ds001486_sub-0008,ds001486,sub-008,ses-T1,task-Rhyming,,run-01,217.917,3.798,5,control,0.45,1,n/a,/BLUEbox.bmp
ds001486_sub-0008,ds001486,sub-008,ses-T1,task-Rhyming,,run-01,221.715,4.798,2,O+P-,0.627,0,pool,wool
ds001486_sub-0008,ds001486,sub-008,ses-T1,task-Rhyming,,run-01,226.513,2.999,5,control,0.525,1,n/a,/BLUEbox.bmp
ds001486_sub-0008,ds001486,sub-008,ses-T1,task-Rhyming,,run-01,229.512,3.399,5,control,0.54,1,n/a,/BLUEbox.bmp
ds001486_sub-0008,ds001486,sub-008,ses-T1,task-Rhyming,,run-01,232.911,4.398,2,O+P-,0.812,1,fought,drought
ds001486_sub-0008,ds001486,sub-008,ses-T1,task-Rhyming,,run-01,237.309,3.999,3,O-P+,1.381,1,flight,spite
ds001486_sub-0008,ds001486,sub-008,ses-T1,task-Rhyming,,run-01,241.308,4.398,3,O-P+,1.042,1,scheme,cream
ds001486_sub-0008,ds001486,sub-008,ses-T1,task-Rhyming,,run-01,245.706,3.998,6,perceptual,0.742,1,task-Rhyming/perceptual_z.bmp,task-Rhyming/perceptual_g.bmp
ds001486_sub-0008,ds001486,sub-008,ses-T1,task-Rhyming,,run-01,249.704,4.799,4,O-P-,0.963,1,ghost,pose
ds001486_sub-0008,ds001486,sub-008,ses-T1,task-Rhyming,,run-01,254.503,3.398,5,control,0.45,1,n/a,/BLUEbox.bmp
ds001486_sub-0008,ds001486,sub-008,ses-T1,task-Rhyming,,run-01,257.901,3.999,4,O-P-,0.897,1,grace,fence
ds001486_sub-0008,ds001486,sub-008,ses-T1,task-Rhyming,,run-01,261.9,3.998,4,O-P-,1.274,1,dried,stood
ds001486_sub-0008,ds001486,sub-008,ses-T1,task-Rhyming,,run-01,265.898,3.999,4,O-P-,0.757,1,ford,rod
ds001486_sub-0008,ds001486,sub-008,ses-T1,task-Rhyming,,run-01,269.897,4.398,1,O+P+,0.823,1,strap,gap
ds001486_sub-0008,ds001486,sub-008,ses-T1,task-Rhyming,,run-01,274.295,4.798,6,perceptual,0.887,1,task-Rhyming/perceptual_e.bmp,task-Rhyming/perceptual_f.bmp
ds001486_sub-0008,ds001486,sub-008,ses-T1,task-Rhyming,,run-01,279.093,2.999,5,control,0.636,1,n/a,/BLUEbox.bmp
ds001486_sub-0008,ds001486,sub-008,ses-T1,task-Rhyming,,run-01,282.092,3.998,4,O-P-,0.936,1,gross,post
ds001486_sub-0008,ds001486,sub-008,ses-T1,task-Rhyming,,run-01,286.09,3.999,4,O-P-,1.096,1,fault,note
ds001486_sub-0008,ds001486,sub-008,ses-T1,task-Rhyming,,run-01,290.089,4.798,1,O+P+,1.134,1,bull,full
ds001486_sub-0008,ds001486,sub-008,ses-T1,task-Rhyming,,run-01,294.887,4.798,3,O-P+,0.829,1,chase,grace
ds001486_sub-0008,ds001486,sub-008,ses-T1,task-Rhyming,,run-01,299.685,3.999,3,O-P+,1.114,1,float,note
ds001486_sub-0008,ds001486,sub-008,ses-T1,task-Rhyming,,run-01,303.684,4.798,3,O-P+,1.226,1,bride,dried
ds001486_sub-0008,ds001486,sub-008,ses-T1,task-Rhyming,,run-01,308.482,4.798,4,O-P-,1.059,1,thief,plead
ds001486_sub-0008,ds001486,sub-008,ses-T1,task-Rhyming,,run-01,313.28,4.398,1,O+P+,0.592,1,bluff,puff
ds001486_sub-0008,ds001486,sub-008,ses-T1,task-Rhyming,,run-01,317.678,4.798,6,perceptual,1.065,0,task-Rhyming/perceptual_v.bmp,task-Rhyming/perceptual_w.bmp
ds001486_sub-0008,ds001486,sub-008,ses-T1,task-Rhyming,,run-01,322.476,4.799,1,O+P+,0.645,1,shove,glove
ds001486_sub-0008,ds001486,sub-008,ses-T1,task-Rhyming,,run-01,327.275,4.398,6,perceptual,0.9,1,task-Rhyming/perceptual_y.bmp,task-Rhyming/perceptual_o.bmp
ds001486_sub-0008,ds001486,sub-008,ses-T1,task-Rhyming,,run-01,331.673,4.798,2,O+P-,1.287,1,stamp,swamp
ds001486_sub-0008,ds001486,sub-008,ses-T1,task-Rhyming,,run-01,336.471,4.398,4,O-P-,0.891,1,stamp,tomb
ds001486_sub-0008,ds001486,sub-008,ses-T1,task-Rhyming,,run-01,340.869,3,5,control,0.536,1,n/a,/BLUEbox.bmp
ds001486_sub-0009,ds001486,sub-009,ses-T1,task-Rhyming,,run-01,0,3.998,2,O+P-,1.007,0,post,cost
ds001486_sub-0009,ds001486,sub-009,ses-T1,task-Rhyming,,run-01,3.998,2.999,5,control,0.768,1,n/a,/BLUEbox.bmp
ds001486_sub-0009,ds001486,sub-009,ses-T1,task-Rhyming,,run-01,6.997,4.399,6,perceptual,1.138,0,task-Rhyming/perceptual_o.bmp,task-Rhyming/perceptual_p.bmp
ds001486_sub-0009,ds001486,sub-009,ses-T1,task-Rhyming,,run-01,11.396,3.998,3,O-P+,1.152,1,rum,numb
ds001486_sub-0009,ds001486,sub-009,ses-T1,task-Rhyming,,run-01,15.394,3.799,5,control,1.142,1,n/a,/BLUEbox.bmp
ds001486_sub-0009,ds001486,sub-009,ses-T1,task-Rhyming,,run-01,19.193,3.998,6,perceptual,1.325,1,task-Rhyming/perceptual_c.bmp,task-Rhyming/perceptual_u.bmp
ds001486_sub-0009,ds001486,sub-009,ses-T1,task-Rhyming,,run-01,23.191,3.998,1,O+P+,1.224,1,fought,sought
ds001486_sub-0009,ds001486,sub-009,ses-T1,task-Rhyming,,run-01,27.189,3.999,1,O+P+,1.363,1,scheme,theme
ds001486_sub-0009,ds001486,sub-009,ses-T1,task-Rhyming,,run-01,31.188,3.998,6,perceptual,1.117,0,task-Rhyming/perceptual_m.bmp,task-Rhyming/perceptual_n.bmp
ds001486_sub-0009,ds001486,sub-009,ses-T1,task-Rhyming,,run-01,35.186,4.399,1,O+P+,1.151,1,stool,fool
ds001486_sub-0009,ds001486,sub-009,ses-T1,task-Rhyming,,run-01,39.585,3.398,5,control,0.582,1,n/a,/BLUEbox.bmp
ds001486_sub-0009,ds001486,sub-009,ses-T1,task-Rhyming,,run-01,42.983,4.399,1,O+P+,1.017,1,soak,oak
ds001486_sub-0009,ds001486,sub-009,ses-T1,task-Rhyming,,run-01,47.382,4.398,2,O+P-,1.335,1,threat,wheat
ds001486_sub-0009,ds001486,sub-009,ses-T1,task-Rhyming,,run-01,51.78,3.999,1,O+P+,1.482,1,thread,spread
ds001486_sub-0009,ds001486,sub-009,ses-T1,task-Rhyming,,run-01,55.779,4.398,3,O-P+,2.063,1,pile,trial
ds001486_sub-0009,ds001486,sub-009,ses-T1,task-Rhyming,,run-01,60.177,4.798,4,O-P-,1.317,1,swap,watch
ds001486_sub-0009,ds001486,sub-009,ses-T1,task-Rhyming,,run-01,64.975,3.799,5,control,0.547,1,n/a,/BLUEbox.bmp
ds001486_sub-0009,ds001486,sub-009,ses-T1,task-Rhyming,,run-01,68.774,3.398,5,control,0.762,1,n/a,/BLUEbox.bmp
ds001486_sub-0009,ds001486,sub-009,ses-T1,task-Rhyming,,run-01,72.172,4.399,4,O-P-,1.378,1,tough,dull
ds001486_sub-0009,ds001486,sub-009,ses-T1,task-Rhyming,,run-01,76.571,4.798,6,perceptual,1.197,0,task-Rhyming/perceptual_w.bmp,task-Rhyming/perceptual_e.bmp
ds001486_sub-0009,ds001486,sub-009,ses-T1,task-Rhyming,,run-01,81.369,4.798,1,O+P+,0.997,1,sweep,creep
ds001486_sub-0009,ds001486,sub-009,ses-T1,task-Rhyming,,run-01,86.167,4.798,6,perceptual,1.598,1,task-Rhyming/perceptual_k.bmp,task-Rhyming/perceptual_t.bmp
ds001486_sub-0009,ds001486,sub-009,ses-T1,task-Rhyming,,run-01,90.965,3.399,5,control,0.532,1,n/a,/BLUEbox.bmp
ds001486_sub-0009,ds001486,sub-009,ses-T1,task-Rhyming,,run-01,94.364,3.398,3,O-P+,0.672,1,stroke,soak
ds001486_sub-0009,ds001486,sub-009,ses-T1,task-Rhyming,,run-01,97.762,4.399,4,O-P-,1.334,1,trial,fall
ds001486_sub-0009,ds001486,sub-009,ses-T1,task-Rhyming,,run-01,102.161,4.798,6,perceptual,1.44,1,task-Rhyming/perceptual_k.bmp,task-Rhyming/perceptual_l.bmp
ds001486_sub-0009,ds001486,sub-009,ses-T1,task-Rhyming,,run-01,106.959,2.999,5,control,0.515,1,n/a,/BLUEbox.bmp
ds001486_sub-0009,ds001486,sub-009,ses-T1,task-Rhyming,,run-01,109.958,3.398,5,control,0.738,1,n/a,/BLUEbox.bmp
ds001486_sub-0009,ds001486,sub-009,ses-T1,task-Rhyming,,run-01,113.356,3.399,5,control,1.57,1,n/a,/BLUEbox.bmp
ds001486_sub-0009,ds001486,sub-009,ses-T1,task-Rhyming,,run-01,116.755,3.399,5,control,0.42,1,n/a,/BLUEbox.bmp
ds001486_sub-0009,ds001486,sub-009,ses-T1,task-Rhyming,,run-01,120.154,3.998,1,O+P+,1.223,1,beef,reef
ds001486_sub-0009,ds001486,sub-009,ses-T1,task-Rhyming,,run-01,124.152,2.999,5,control,0.575,1,n/a,/BLUEbox.bmp
ds001486_sub-0009,ds001486,sub-009,ses-T1,task-Rhyming,,run-01,127.151,4.798,2,O+P-,1.329,1,wart,smart
ds001486_sub-0009,ds001486,sub-009,ses-T1,task-Rhyming,,run-01,131.949,4.798,2,O+P-,1.059,0,dose,pose
ds001486_sub-0009,ds001486,sub-009,ses-T1,task-Rhyming,,run-01,136.747,3.399,5,control,0.81,1,n/a,/BLUEbox.bmp
ds001486_sub-0009,ds001486,sub-009,ses-T1,task-Rhyming,,run-01,140.146,3.999,2,O+P-,1.633,1,touch,couch
ds001486_sub-0009,ds001486,sub-009,ses-T1,task-Rhyming,,run-01,144.145,3.998,6,perceptual,1.513,1,task-Rhyming/perceptual_v.bmp,task-Rhyming/perceptual_m.bmp
ds001486_sub-0009,ds001486,sub-009,ses-T1,task-Rhyming,,run-01,148.143,3.799,5,control,0.516,1,n/a,/BLUEbox.bmp
ds001486_sub-0009,ds001486,sub-009,ses-T1,task-Rhyming,,run-01,151.942,3.798,5,control,0.792,1,n/a,/BLUEbox.bmp
ds001486_sub-0009,ds001486,sub-009,ses-T1,task-Rhyming,,run-01,155.74,3.399,5,control,0.661,1,n/a,/BLUEbox.bmp
ds001486_sub-0009,ds001486,sub-009,ses-T1,task-Rhyming,,run-01,159.139,2.999,5,control,0.66,1,n/a,/BLUEbox.bmp
ds001486_sub-0009,ds001486,sub-009,ses-T1,task-Rhyming,,run-01,162.138,3.798,5,control,0.504,1,n/a,/BLUEbox.bmp
ds001486_sub-0009,ds001486,sub-009,ses-T1,task-Rhyming,,run-01,165.936,4.398,4,O-P-,1.085,1,port,warm
ds001486_sub-0009,ds001486,sub-009,ses-T1,task-Rhyming,,run-01,170.334,4.799,3,O-P+,1.274,1,june,noon
ds001486_sub-0009,ds001486,sub-009,ses-T1,task-Rhyming,,run-01,175.133,4.398,4,O-P-,1.245,1,wreath,leap
ds001486_sub-0009,ds001486,sub-009,ses-T1,task-Rhyming,,run-01,179.531,2.999,5,control,0.659,1,n/a,/BLUEbox.bmp
ds001486_sub-0009,ds001486,sub-009,ses-T1,task-Rhyming,,run-01,182.53,4.398,6,perceptual,1.504,1,task-Rhyming/perceptual_c.bmp,task-Rhyming/perceptual_d.bmp
ds001486_sub-0009,ds001486,sub-009,ses-T1,task-Rhyming,,run-01,186.928,4.398,2,O+P-,1.568,1,glove,stove
ds001486_sub-0009,ds001486,sub-009,ses-T1,task-Rhyming,,run-01,191.326,4.799,1,O+P+,1.706,1,numb,crumb
ds001486_sub-0009,ds001486,sub-009,ses-T1,task-Rhyming,,run-01,196.125,4.798,2,O+P-,1.324,1,stood,flood
ds001486_sub-0009,ds001486,sub-009,ses-T1,task-Rhyming,,run-01,200.923,4.398,6,perceptual,1.371,1,task-Rhyming/perceptual_i.bmp,task-Rhyming/perceptual_j.bmp
ds001486_sub-0009,ds001486,sub-009,ses-T1,task-Rhyming,,run-01,205.321,4.798,4,O-P-,1.256,1,smart,drought
ds001486_sub-0009,ds001486,sub-009,ses-T1,task-Rhyming,,run-01,210.119,4.398,3,O-P+,1.538,1,stir,blur
ds001486_sub-0009,ds001486,sub-009,ses-T1,task-Rhyming,,run-01,214.517,3.399,5,control,1.617,1,n/a,/BLUEbox.bmp
ds001486_sub-0009,ds001486,sub-009,ses-T1,task-Rhyming,,run-01,217.916,3.799,5,control,0.7,1,n/a,/BLUEbox.bmp
ds001486_sub-0009,ds001486,sub-009,ses-T1,task-Rhyming,,run-01,221.715,4.798,2,O+P-,1.37,1,pool,wool
ds001486_sub-0009,ds001486,sub-009,ses-T1,task-Rhyming,,run-01,226.513,2.999,5,control,0.661,1,n/a,/BLUEbox.bmp
ds001486_sub-0009,ds001486,sub-009,ses-T1,task-Rhyming,,run-01,229.512,3.398,5,control,0.691,1,n/a,/BLUEbox.bmp
ds001486_sub-0009,ds001486,sub-009,ses-T1,task-Rhyming,,run-01,232.91,4.399,2,O+P-,1.534,1,fought,drought
ds001486_sub-0009,ds001486,sub-009,ses-T1,task-Rhyming,,run-01,237.309,3.998,3,O-P+,1.588,1,flight,spite
ds001486_sub-0009,ds001486,sub-009,ses-T1,task-Rhyming,,run-01,241.307,4.398,3,O-P+,1.056,1,scheme,cream
ds001486_sub-0009,ds001486,sub-009,ses-T1,task-Rhyming,,run-01,245.705,3.999,6,perceptual,1.584,1,task-Rhyming/perceptual_z.bmp,task-Rhyming/perceptual_g.bmp
ds001486_sub-0009,ds001486,sub-009,ses-T1,task-Rhyming,,run-01,249.704,4.798,4,O-P-,1.2,1,ghost,pose
ds001486_sub-0009,ds001486,sub-009,ses-T1,task-Rhyming,,run-01,254.502,3.399,5,control,0.635,1,n/a,/BLUEbox.bmp
ds001486_sub-0009,ds001486,sub-009,ses-T1,task-Rhyming,,run-01,257.901,3.998,4,O-P-,1.382,1,grace,fence
ds001486_sub-0009,ds001486,sub-009,ses-T1,task-Rhyming,,run-01,261.899,3.999,4,O-P-,1.415,1,dried,stood
ds001486_sub-0009,ds001486,sub-009,ses-T1,task-Rhyming,,run-01,265.898,3.998,4,O-P-,1.681,0,ford,rod
ds001486_sub-0009,ds001486,sub-009,ses-T1,task-Rhyming,,run-01,269.896,4.399,1,O+P+,1.269,0,strap,gap
ds001486_sub-0009,ds001486,sub-009,ses-T1,task-Rhyming,,run-01,274.295,4.798,6,perceptual,1.331,1,task-Rhyming/perceptual_e.bmp,task-Rhyming/perceptual_f.bmp
ds001486_sub-0009,ds001486,sub-009,ses-T1,task-Rhyming,,run-01,279.093,2.999,5,control,0.578,1,n/a,/BLUEbox.bmp
ds001486_sub-0009,ds001486,sub-009,ses-T1,task-Rhyming,,run-01,282.092,3.998,4,O-P-,1.257,1,gross,post
ds001486_sub-0009,ds001486,sub-009,ses-T1,task-Rhyming,,run-01,286.09,3.998,4,O-P-,2.442,1,fault,note
ds001486_sub-0009,ds001486,sub-009,ses-T1,task-Rhyming,,run-01,290.088,4.799,1,O+P+,1.162,1,bull,full
ds001486_sub-0009,ds001486,sub-009,ses-T1,task-Rhyming,,run-01,294.887,4.798,3,O-P+,1.287,1,chase,grace
ds001486_sub-0009,ds001486,sub-009,ses-T1,task-Rhyming,,run-01,299.685,3.998,3,O-P+,1.355,1,float,note
ds001486_sub-0009,ds001486,sub-009,ses-T1,task-Rhyming,,run-01,303.683,4.798,3,O-P+,1.227,1,bride,dried
ds001486_sub-0009,ds001486,sub-009,ses-T1,task-Rhyming,,run-01,308.481,4.799,4,O-P-,1.784,1,thief,plead
ds001486_sub-0009,ds001486,sub-009,ses-T1,task-Rhyming,,run-01,313.28,4.398,1,O+P+,1.183,1,bluff,puff
ds001486_sub-0009,ds001486,sub-009,ses-T1,task-Rhyming,,run-01,317.678,4.798,6,perceptual,1.479,1,task-Rhyming/perceptual_v.bmp,task-Rhyming/perceptual_w.bmp
ds001486_sub-0009,ds001486,sub-009,ses-T1,task-Rhyming,,run-01,322.476,4.798,1,O+P+,1.344,1,shove,glove
ds001486_sub-0009,ds001486,sub-009,ses-T1,task-Rhyming,,run-01,327.274,4.398,6,perceptual,1.57,1,task-Rhyming/perceptual_y.bmp,task-Rhyming/perceptual_o.bmp
ds001486_sub-0009,ds001486,sub-009,ses-T1,task-Rhyming,,run-01,331.672,4.799,2,O+P-,1.834,1,stamp,swamp
ds001486_sub-0009,ds001486,sub-009,ses-T1,task-Rhyming,,run-01,336.471,4.398,4,O-P-,1.456,1,stamp,tomb
ds001486_sub-0009,ds001486,sub-009,ses-T1,task-Rhyming,,run-01,340.869,3,5,control,0.635,1,n/a,/BLUEbox.bmp
ds001486_sub-0010,ds001486,sub-010,ses-T1,task-Rhyming,,run-01,0,4.006,2,O+P-,1.157,1,post,cost
ds001486_sub-0010,ds001486,sub-010,ses-T1,task-Rhyming,,run-01,4.006,3.004,5,control,0.501,1,n/a,/BLUEbox.bmp
ds001486_sub-0010,ds001486,sub-010,ses-T1,task-Rhyming,,run-01,7.01,4.406,6,perceptual,1.442,1,task-Rhyming/perceptual_o.bmp,task-Rhyming/perceptual_p.bmp
ds001486_sub-0010,ds001486,sub-010,ses-T1,task-Rhyming,,run-01,11.416,4.006,3,O-P+,1.195,1,rum,numb
ds001486_sub-0010,ds001486,sub-010,ses-T1,task-Rhyming,,run-01,15.422,3.806,5,control,0.452,1,n/a,/BLUEbox.bmp
ds001486_sub-0010,ds001486,sub-010,ses-T1,task-Rhyming,,run-01,19.228,4.005,6,perceptual,1.383,1,task-Rhyming/perceptual_c.bmp,task-Rhyming/perceptual_u.bmp
ds001486_sub-0010,ds001486,sub-010,ses-T1,task-Rhyming,,run-01,23.233,4.006,1,O+P+,1.638,1,fought,sought
ds001486_sub-0010,ds001486,sub-010,ses-T1,task-Rhyming,,run-01,27.239,4.006,1,O+P+,1.422,1,scheme,theme
ds001486_sub-0010,ds001486,sub-010,ses-T1,task-Rhyming,,run-01,31.245,4.006,6,perceptual,1.88,1,task-Rhyming/perceptual_m.bmp,task-Rhyming/perceptual_n.bmp
ds001486_sub-0010,ds001486,sub-010,ses-T1,task-Rhyming,,run-01,35.251,4.406,1,O+P+,1.16,1,stool,fool
ds001486_sub-0010,ds001486,sub-010,ses-T1,task-Rhyming,,run-01,39.657,3.405,5,control,0.531,1,n/a,/BLUEbox.bmp
ds001486_sub-0010,ds001486,sub-010,ses-T1,task-Rhyming,,run-01,43.062,4.407,1,O+P+,1.28,1,soak,oak
ds001486_sub-0010,ds001486,sub-010,ses-T1,task-Rhyming,,run-01,47.469,4.406,2,O+P-,1.207,1,threat,wheat
ds001486_sub-0010,ds001486,sub-010,ses-T1,task-Rhyming,,run-01,51.875,4.006,1,O+P+,0.78,1,thread,spread
ds001486_sub-0010,ds001486,sub-010,ses-T1,task-Rhyming,,run-01,55.881,4.406,3,O-P+,2.327,0,pile,trial
ds001486_sub-0010,ds001486,sub-010,ses-T1,task-Rhyming,,run-01,60.287,4.807,4,O-P-,1.216,1,swap,watch
ds001486_sub-0010,ds001486,sub-010,ses-T1,task-Rhyming,,run-01,65.094,3.806,5,control,0.551,1,n/a,/BLUEbox.bmp
ds001486_sub-0010,ds001486,sub-010,ses-T1,task-Rhyming,,run-01,68.9,3.405,5,control,0.779,1,n/a,/BLUEbox.bmp
ds001486_sub-0010,ds001486,sub-010,ses-T1,task-Rhyming,,run-01,72.305,4.406,4,O-P-,1.174,1,tough,dull
ds001486_sub-0010,ds001486,sub-010,ses-T1,task-Rhyming,,run-01,76.711,4.807,6,perceptual,1.223,1,task-Rhyming/perceptual_w.bmp,task-Rhyming/perceptual_e.bmp
ds001486_sub-0010,ds001486,sub-010,ses-T1,task-Rhyming,,run-01,81.518,4.807,1,O+P+,1.133,1,sweep,creep
ds001486_sub-0010,ds001486,sub-010,ses-T1,task-Rhyming,,run-01,86.325,4.807,6,perceptual,1.187,1,task-Rhyming/perceptual_k.bmp,task-Rhyming/perceptual_t.bmp
ds001486_sub-0010,ds001486,sub-010,ses-T1,task-Rhyming,,run-01,91.132,3.405,5,control,0.434,1,n/a,/BLUEbox.bmp
ds001486_sub-0010,ds001486,sub-010,ses-T1,task-Rhyming,,run-01,94.537,3.405,3,O-P+,0.48,1,stroke,soak
ds001486_sub-0010,ds001486,sub-010,ses-T1,task-Rhyming,,run-01,97.942,4.406,4,O-P-,1.294,1,trial,fall
ds001486_sub-0010,ds001486,sub-010,ses-T1,task-Rhyming,,run-01,102.348,4.807,6,perceptual,1.254,1,task-Rhyming/perceptual_k.bmp,task-Rhyming/perceptual_l.bmp
ds001486_sub-0010,ds001486,sub-010,ses-T1,task-Rhyming,,run-01,107.155,3.004,5,control,0.562,1,n/a,/BLUEbox.bmp
ds001486_sub-0010,ds001486,sub-010,ses-T1,task-Rhyming,,run-01,110.159,3.405,5,control,0.459,1,n/a,/BLUEbox.bmp
ds001486_sub-0010,ds001486,sub-010,ses-T1,task-Rhyming,,run-01,113.564,3.405,5,control,0.46,1,n/a,/BLUEbox.bmp
ds001486_sub-0010,ds001486,sub-010,ses-T1,task-Rhyming,,run-01,116.969,3.405,5,control,0.436,1,n/a,/BLUEbox.bmp
ds001486_sub-0010,ds001486,sub-010,ses-T1,task-Rhyming,,run-01,120.374,4.006,1,O+P+,1.14,1,beef,reef
ds001486_sub-0010,ds001486,sub-010,ses-T1,task-Rhyming,,run-01,124.38,3.004,5,control,0.407,1,n/a,/BLUEbox.bmp
ds001486_sub-0010,ds001486,sub-010,ses-T1,task-Rhyming,,run-01,127.384,4.807,2,O+P-,1.172,1,wart,smart
ds001486_sub-0010,ds001486,sub-010,ses-T1,task-Rhyming,,run-01,132.191,4.807,2,O+P-,1.472,0,dose,pose
ds001486_sub-0010,ds001486,sub-010,ses-T1,task-Rhyming,,run-01,136.998,3.405,5,control,0.475,1,n/a,/BLUEbox.bmp
ds001486_sub-0010,ds001486,sub-010,ses-T1,task-Rhyming,,run-01,140.403,4.006,2,O+P-,1.14,1,touch,couch
ds001486_sub-0010,ds001486,sub-010,ses-T1,task-Rhyming,,run-01,144.409,4.006,6,perceptual,1.146,1,task-Rhyming/perceptual_v.bmp,task-Rhyming/perceptual_m.bmp
ds001486_sub-0010,ds001486,sub-010,ses-T1,task-Rhyming,,run-01,148.415,3.805,5,control,0.504,1,n/a,/BLUEbox.bmp
ds001486_sub-0010,ds001486,sub-010,ses-T1,task-Rhyming,,run-01,152.22,3.806,5,control,0.42,1,n/a,/BLUEbox.bmp
ds001486_sub-0010,ds001486,sub-010,ses-T1,task-Rhyming,,run-01,156.026,3.405,5,control,0.341,1,n/a,/BLUEbox.bmp
ds001486_sub-0010,ds001486,sub-010,ses-T1,task-Rhyming,,run-01,159.431,3.004,5,control,0.36,1,n/a,/BLUEbox.bmp
ds001486_sub-0010,ds001486,sub-010,ses-T1,task-Rhyming,,run-01,162.435,3.806,5,control,0.366,1,n/a,/BLUEbox.bmp
ds001486_sub-0010,ds001486,sub-010,ses-T1,task-Rhyming,,run-01,166.241,4.406,4,O-P-,1.107,1,port,warm
ds001486_sub-0010,ds001486,sub-010,ses-T1,task-Rhyming,,run-01,170.647,4.807,3,O-P+,1.113,1,june,noon
ds001486_sub-0010,ds001486,sub-010,ses-T1,task-Rhyming,,run-01,175.454,4.406,4,O-P-,1.106,1,wreath,leap
ds001486_sub-0010,ds001486,sub-010,ses-T1,task-Rhyming,,run-01,179.86,3.005,5,control,0.611,1,n/a,/BLUEbox.bmp
ds001486_sub-0010,ds001486,sub-010,ses-T1,task-Rhyming,,run-01,182.865,4.406,6,perceptual,1.15,1,task-Rhyming/perceptual_c.bmp,task-Rhyming/perceptual_d.bmp
ds001486_sub-0010,ds001486,sub-010,ses-T1,task-Rhyming,,run-01,187.271,4.407,2,O+P-,1.815,1,glove,stove
ds001486_sub-0010,ds001486,sub-010,ses-T1,task-Rhyming,,run-01,191.678,4.807,1,O+P+,1.1,1,numb,crumb
ds001486_sub-0010,ds001486,sub-010,ses-T1,task-Rhyming,,run-01,196.485,4.807,2,O+P-,1.112,1,stood,flood
ds001486_sub-0010,ds001486,sub-010,ses-T1,task-Rhyming,,run-01,201.292,4.406,6,perceptual,2.17,1,task-Rhyming/perceptual_i.bmp,task-Rhyming/perceptual_j.bmp
ds001486_sub-0010,ds001486,sub-010,ses-T1,task-Rhyming,,run-01,205.698,4.807,4,O-P-,1.408,1,smart,drought
ds001486_sub-0010,ds001486,sub-010,ses-T1,task-Rhyming,,run-01,210.505,4.406,3,O-P+,1.104,1,stir,blur
ds001486_sub-0010,ds001486,sub-010,ses-T1,task-Rhyming,,run-01,214.911,3.405,5,control,0.661,1,n/a,/BLUEbox.bmp
ds001486_sub-0010,ds001486,sub-010,ses-T1,task-Rhyming,,run-01,218.316,3.806,5,control,0.316,1,n/a,/BLUEbox.bmp
ds001486_sub-0010,ds001486,sub-010,ses-T1,task-Rhyming,,run-01,222.122,4.807,2,O+P-,1.251,1,pool,wool
ds001486_sub-0010,ds001486,sub-010,ses-T1,task-Rhyming,,run-01,226.929,3.004,5,control,0.499,1,n/a,/BLUEbox.bmp
ds001486_sub-0010,ds001486,sub-010,ses-T1,task-Rhyming,,run-01,229.933,3.405,5,control,0.409,1,n/a,/BLUEbox.bmp
ds001486_sub-0010,ds001486,sub-010,ses-T1,task-Rhyming,,run-01,233.338,4.406,2,O+P-,1.092,1,fought,drought
ds001486_sub-0010,ds001486,sub-010,ses-T1,task-Rhyming,,run-01,237.744,4.006,3,O-P+,1.081,1,flight,spite
ds001486_sub-0010,ds001486,sub-010,ses-T1,task-Rhyming,,run-01,241.75,4.407,3,O-P+,1.167,1,scheme,cream
ds001486_sub-0010,ds001486,sub-010,ses-T1,task-Rhyming,,run-01,246.157,4.005,6,perceptual,1.131,1,task-Rhyming/perceptual_z.bmp,task-Rhyming/perceptual_g.bmp
ds001486_sub-0010,ds001486,sub-010,ses-T1,task-Rhyming,,run-01,250.162,4.807,4,O-P-,2.152,0,ghost,pose
ds001486_sub-0010,ds001486,sub-010,ses-T1,task-Rhyming,,run-01,254.969,3.405,5,control,0.594,1,n/a,/BLUEbox.bmp
ds001486_sub-0010,ds001486,sub-010,ses-T1,task-Rhyming,,run-01,258.374,4.006,4,O-P-,1.179,1,grace,fence
ds001486_sub-0010,ds001486,sub-010,ses-T1,task-Rhyming,,run-01,262.38,4.006,4,O-P-,1.169,1,dried,stood
ds001486_sub-0010,ds001486,sub-010,ses-T1,task-Rhyming,,run-01,266.386,4.006,4,O-P-,1.536,1,ford,rod
ds001486_sub-0010,ds001486,sub-010,ses-T1,task-Rhyming,,run-01,270.392,4.406,1,O+P+,1.134,1,strap,gap
ds001486_sub-0010,ds001486,sub-010,ses-T1,task-Rhyming,,run-01,274.798,4.807,6,perceptual,1.169,1,task-Rhyming/perceptual_e.bmp,task-Rhyming/perceptual_f.bmp
ds001486_sub-0010,ds001486,sub-010,ses-T1,task-Rhyming,,run-01,279.605,3.004,5,control,0.526,1,n/a,/BLUEbox.bmp
ds001486_sub-0010,ds001486,sub-010,ses-T1,task-Rhyming,,run-01,282.609,4.006,4,O-P-,1.618,1,gross,post
ds001486_sub-0010,ds001486,sub-010,ses-T1,task-Rhyming,,run-01,286.615,4.006,4,O-P-,1.058,1,fault,note
ds001486_sub-0010,ds001486,sub-010,ses-T1,task-Rhyming,,run-01,290.621,4.807,1,O+P+,1.092,1,bull,full
ds001486_sub-0010,ds001486,sub-010,ses-T1,task-Rhyming,,run-01,295.428,4.807,3,O-P+,1.181,1,chase,grace
ds001486_sub-0010,ds001486,sub-010,ses-T1,task-Rhyming,,run-01,300.235,4.006,3,O-P+,1.12,1,float,note
ds001486_sub-0010,ds001486,sub-010,ses-T1,task-Rhyming,,run-01,304.241,4.807,3,O-P+,1.18,1,bride,dried
ds001486_sub-0010,ds001486,sub-010,ses-T1,task-Rhyming,,run-01,309.048,4.807,4,O-P-,1.136,1,thief,plead
ds001486_sub-0010,ds001486,sub-010,ses-T1,task-Rhyming,,run-01,313.855,4.406,1,O+P+,1.07,1,bluff,puff
ds001486_sub-0010,ds001486,sub-010,ses-T1,task-Rhyming,,run-01,318.261,4.807,6,perceptual,1.079,1,task-Rhyming/perceptual_v.bmp,task-Rhyming/perceptual_w.bmp
ds001486_sub-0010,ds001486,sub-010,ses-T1,task-Rhyming,,run-01,323.068,4.807,1,O+P+,1.179,1,shove,glove
ds001486_sub-0010,ds001486,sub-010,ses-T1,task-Rhyming,,run-01,327.875,4.406,6,perceptual,1.124,1,task-Rhyming/perceptual_y.bmp,task-Rhyming/perceptual_o.bmp
ds001486_sub-0010,ds001486,sub-010,ses-T1,task-Rhyming,,run-01,332.281,4.807,2,O+P-,1.122,1,stamp,swamp
ds001486_sub-0010,ds001486,sub-010,ses-T1,task-Rhyming,,run-01,337.088,4.407,4,O-P-,1.106,1,stamp,tomb
ds001486_sub-0010,ds001486,sub-010,ses-T1,task-Rhyming,,run-01,341.495,3.001,5,control,0.44,1,n/a,/BLUEbox.bmp
ds001486_sub-0011,ds001486,sub-011,ses-T1,task-Rhyming,,run-01,0,3.999,2,O+P-,1.144,0,post,cost
ds001486_sub-0011,ds001486,sub-011,ses-T1,task-Rhyming,,run-01,3.999,2.998,5,control,1.01,1,n/a,/BLUEbox.bmp
ds001486_sub-0011,ds001486,sub-011,ses-T1,task-Rhyming,,run-01,6.997,4.399,6,perceptual,1.088,1,task-Rhyming/perceptual_o.bmp,task-Rhyming/perceptual_p.bmp
ds001486_sub-0011,ds001486,sub-011,ses-T1,task-Rhyming,,run-01,11.396,3.998,3,O-P+,1.689,0,rum,numb
ds001486_sub-0011,ds001486,sub-011,ses-T1,task-Rhyming,,run-01,15.394,3.799,5,control,0.01,1,n/a,/BLUEbox.bmp
ds001486_sub-0011,ds001486,sub-011,ses-T1,task-Rhyming,,run-01,19.193,3.998,6,perceptual,1.082,0,task-Rhyming/perceptual_c.bmp,task-Rhyming/perceptual_u.bmp
ds001486_sub-0011,ds001486,sub-011,ses-T1,task-Rhyming,,run-01,23.191,3.998,1,O+P+,1.561,1,fought,sought
ds001486_sub-0011,ds001486,sub-011,ses-T1,task-Rhyming,,run-01,27.189,3.999,1,O+P+,1.135,1,scheme,theme
ds001486_sub-0011,ds001486,sub-011,ses-T1,task-Rhyming,,run-01,31.188,3.998,6,perceptual,1.018,1,task-Rhyming/perceptual_m.bmp,task-Rhyming/perceptual_n.bmp
ds001486_sub-0011,ds001486,sub-011,ses-T1,task-Rhyming,,run-01,35.186,4.399,1,O+P+,1.033,1,stool,fool
ds001486_sub-0011,ds001486,sub-011,ses-T1,task-Rhyming,,run-01,39.585,3.398,5,control,0.514,1,n/a,/BLUEbox.bmp
ds001486_sub-0011,ds001486,sub-011,ses-T1,task-Rhyming,,run-01,42.983,4.399,1,O+P+,1.091,1,soak,oak
ds001486_sub-0011,ds001486,sub-011,ses-T1,task-Rhyming,,run-01,47.382,4.398,2,O+P-,1.184,0,threat,wheat
ds001486_sub-0011,ds001486,sub-011,ses-T1,task-Rhyming,,run-01,51.78,3.998,1,O+P+,1.096,1,thread,spread
ds001486_sub-0011,ds001486,sub-011,ses-T1,task-Rhyming,,run-01,55.778,4.399,3,O-P+,1.035,1,pile,trial
ds001486_sub-0011,ds001486,sub-011,ses-T1,task-Rhyming,,run-01,60.177,4.798,4,O-P-,1.084,0,swap,watch
ds001486_sub-0011,ds001486,sub-011,ses-T1,task-Rhyming,,run-01,64.975,3.798,5,control,0.694,1,n/a,/BLUEbox.bmp
ds001486_sub-0011,ds001486,sub-011,ses-T1,task-Rhyming,,run-01,68.773,3.399,5,control,0.505,1,n/a,/BLUEbox.bmp
ds001486_sub-0011,ds001486,sub-011,ses-T1,task-Rhyming,,run-01,72.172,4.398,4,O-P-,0.976,0,tough,dull
ds001486_sub-0011,ds001486,sub-011,ses-T1,task-Rhyming,,run-01,76.57,4.798,6,perceptual,1.15,0,task-Rhyming/perceptual_w.bmp,task-Rhyming/perceptual_e.bmp
ds001486_sub-0011,ds001486,sub-011,ses-T1,task-Rhyming,,run-01,81.368,4.798,1,O+P+,1.089,1,sweep,creep
ds001486_sub-0011,ds001486,sub-011,ses-T1,task-Rhyming,,run-01,86.166,4.798,6,perceptual,1.073,0,task-Rhyming/perceptual_k.bmp,task-Rhyming/perceptual_t.bmp
ds001486_sub-0011,ds001486,sub-011,ses-T1,task-Rhyming,,run-01,90.964,3.399,5,control,1.279,1,n/a,/BLUEbox.bmp
ds001486_sub-0011,ds001486,sub-011,ses-T1,task-Rhyming,,run-01,94.363,3.399,3,O-P+,0.377,1,stroke,soak
ds001486_sub-0011,ds001486,sub-011,ses-T1,task-Rhyming,,run-01,97.762,4.398,4,O-P-,1.037,0,trial,fall
ds001486_sub-0011,ds001486,sub-011,ses-T1,task-Rhyming,,run-01,102.16,4.798,6,perceptual,0.932,1,task-Rhyming/perceptual_k.bmp,task-Rhyming/perceptual_l.bmp
ds001486_sub-0011,ds001486,sub-011,ses-T1,task-Rhyming,,run-01,106.958,2.999,5,control,0.538,1,n/a,/BLUEbox.bmp
ds001486_sub-0011,ds001486,sub-011,ses-T1,task-Rhyming,,run-01,109.957,3.399,5,control,0.534,1,n/a,/BLUEbox.bmp
ds001486_sub-0011,ds001486,sub-011,ses-T1,task-Rhyming,,run-01,113.356,3.398,5,control,0.469,1,n/a,/BLUEbox.bmp
ds001486_sub-0011,ds001486,sub-011,ses-T1,task-Rhyming,,run-01,116.754,3.399,5,control,0.383,1,n/a,/BLUEbox.bmp
ds001486_sub-0011,ds001486,sub-011,ses-T1,task-Rhyming,,run-01,120.153,3.998,1,O+P+,1.032,1,beef,reef
ds001486_sub-0011,ds001486,sub-011,ses-T1,task-Rhyming,,run-01,124.151,2.999,5,control,0.498,1,n/a,/BLUEbox.bmp
ds001486_sub-0011,ds001486,sub-011,ses-T1,task-Rhyming,,run-01,127.15,4.798,2,O+P-,1.484,0,wart,smart
ds001486_sub-0011,ds001486,sub-011,ses-T1,task-Rhyming,,run-01,131.948,4.799,2,O+P-,0.925,0,dose,pose
ds001486_sub-0011,ds001486,sub-011,ses-T1,task-Rhyming,,run-01,136.747,3.398,5,control,0.46,1,n/a,/BLUEbox.bmp
ds001486_sub-0011,ds001486,sub-011,ses-T1,task-Rhyming,,run-01,140.145,3.999,2,O+P-,1.122,0,touch,couch
